@ HyperIMU - ianovir - 2017
@ Date: Tue Jul 25 11:26:18 GMT+02:00 2017, Sampling Time: 20ms

timestamp,MPL_Linear_Acceleration.x,MPL_Linear_Acceleration.y,MPL_Linear_Acceleration.z,MPL_Gravity.x,MPL_Gravity.y,MPL_Gravity.z
1500974778724,2.1113865,-7.1670427,3.4898481,-1.979107,7.3150344,6.2241764
1500974778762,1.6234183,-5.1627965,1.9550153,-1.5324388,5.336526,8.083424
1500974778787,1.4333786,-4.381389,1.3585598,-1.3178585,4.545542,8.5889
1500974778810,1.4267945,-4.3754034,1.4076409,-1.3178585,4.545542,8.5889
1500974778834,1.4267945,-4.3754034,1.4076409,-1.3178585,4.545542,8.5889
1500974778856,0.98940384,-3.0409355,0.7639,-0.89782566,3.2481835,9.209297
1500974778879,0.98940384,-3.0409355,0.7639,-0.89782566,3.2481835,9.209297
1500974778901,0.7661445,-2.4953568,0.61770403,-0.7068881,2.733131,9.391406
1500974778927,0.7661445,-2.4953568,0.61770403,-0.7068881,2.733131,9.391406
1500974778949,0.65406597,-2.104653,0.42122987,-0.56188923,2.3017256,9.516054
1500974778973,0.65406597,-2.104653,0.42122987,-0.56188923,2.3017256,9.516054
1500974778996,0.59256494,-1.8031331,0.25737667,-0.45429978,1.9427451,9.601497
1500974779018,0.59256494,-1.8031331,0.25737667,-0.45429978,1.9427451,9.601497
1500974779042,0.59256494,-1.8031331,0.25737667,-0.45429978,1.9427451,9.601497
1500974779067,0.33309332,-1.1354501,0.24241292,-0.28880057,1.3774141,9.705047
1500974779089,0.33309332,-1.1354501,0.24241292,-0.28880057,1.3774141,9.705047
1500974779111,0.33488896,-0.8849568,0.093972415,-0.22475569,1.1658266,9.734375
1500974779133,0.33488896,-0.8849568,0.093972415,-0.22475569,1.1658266,9.734375
1500974779155,0.33488896,-0.8849568,0.093972415,-0.22475569,1.1658266,9.734375
1500974779177,0.24091655,-0.7846996,0.09726445,-0.15472528,0.9979332,9.754427
1500974779200,0.24091655,-0.7846996,0.09726445,-0.15472528,0.9979332,9.754427
1500974779221,0.12988544,-0.44352585,0.04938041,-0.12270284,0.7483377,9.777171
1500974779243,0.12988544,-0.44352585,0.04938041,-0.12270284,0.7483377,9.777171
1500974779266,0.16505028,-0.47105917,0.1467945,-0.10339958,0.67531455,9.782708
1500974779287,0.16505028,-0.47105917,0.1467945,-0.10339958,0.67531455,9.782708
1500974779310,0.12599486,-0.24720132,0.087089084,-0.018255789,0.59510875,9.788544
1500974779332,0.12599486,-0.24720132,0.087089084,-0.018255789,0.59510875,9.788544
1500974779353,0.16594811,-0.3978864,0.23672669,0.06569091,0.54887074,9.790938
1500974779375,0.16594811,-0.3978864,0.23672669,0.06569091,0.54887074,9.790938
1500974779397,0.05267244,-0.23777416,0.18016368,0.08319851,0.48332947,9.79423
1500974779420,0.05267244,-0.23777416,0.18016368,0.08319851,0.48332947,9.79423
1500974779442,0.05267244,-0.23777416,0.18016368,0.08319851,0.48332947,9.79423
1500974779466,0.05267244,-0.23777416,0.18016368,0.08319851,0.48332947,9.79423
1500974779489,0.020201078,-0.4556465,-0.6428431,0.0031423897,0.42826283,9.797223
1500974779514,0.020201078,-0.4556465,-0.6428431,0.0031423897,0.42826283,9.797223
1500974779536,0.29149407,-0.20081367,-8.166023,0.031124622,0.6815993,9.782858
1500974779558,0.29149407,-0.20081367,-8.166023,0.031124622,0.6815993,9.782858
1500974779583,0.29149407,-0.20081367,-8.166023,0.031124622,0.6815993,9.782858
1500974779609,-0.104297414,-0.90036947,-9.56753,0.06000468,0.89812493,9.765201
1500974779635,-0.104297414,-0.90036947,-9.56753,0.06000468,0.89812493,9.765201
1500974779658,-0.11611878,-1.3227965,-9.444528,0.093972415,1.2918215,9.720609
1500974779681,-0.11611878,-1.3227965,-9.444528,0.093972415,1.2918215,9.720609
1500974779704,-0.11611878,-1.3227965,-9.444528,0.093972415,1.2918215,9.720609
1500974779727,-0.13198037,-1.5043069,-9.346664,0.109834,1.4859015,9.692776
1500974779752,-0.13198037,-1.5043069,-9.346664,0.109834,1.4859015,9.692776
1500974779774,-0.13198037,-1.5043069,-9.346664,0.109834,1.4859015,9.692776
1500974779796,-0.1830068,-1.896956,-9.165453,0.15367782,1.8647839,9.626487
1500974779818,-0.1830068,-1.896956,-9.165453,0.15367782,1.8647839,9.626487
1500974779845,-0.20979193,-2.046893,-9.0429,0.18884265,2.0404584,9.590124
1500974779867,-0.20979193,-2.046893,-9.0429,0.18884265,2.0404584,9.590124
1500974779889,-0.32022446,-2.373103,-8.883237,0.29209262,2.336741,9.519646
1500974779913,-0.32022446,-2.373103,-8.883237,0.29209262,2.336741,9.519646
1500974779935,-0.32022446,-2.373103,-8.883237,0.29209262,2.336741,9.519646
1500974779961,-0.35434186,-2.4827871,-8.627057,0.36750996,2.4356513,9.492112
1500974779983,-0.35434186,-2.4827871,-8.627057,0.36750996,2.4356513,9.492112
1500974780010,0.29568392,-4.0719385,-10.596737,0.92176765,-0.113574944,9.762507
1500974780032,0.29568392,-4.0719385,-10.596737,0.92176765,-0.113574944,9.762507
1500974780055,0.29568392,-4.0719385,-10.596737,0.92176765,-0.113574944,9.762507
1500974780077,4.2155905,-9.548525,-7.587225,-2.689287,5.494693,7.664588
1500974780099,4.2155905,-9.548525,-7.587225,-2.689287,5.494693,7.664588
1500974780122,5.5535007,-11.733384,-4.4110174,-3.482516,7.930344,4.599112
1500974780146,5.5535007,-11.733384,-4.4110174,-3.482516,7.930344,4.599112
1500974780167,5.2934303,-12.612056,-0.9552865,-2.6981156,9.364471,1.0931027
1500974780189,5.2934303,-12.612056,-0.9552865,-2.6981156,9.364471,1.0931027
1500974780211,5.2934303,-12.612056,-0.9552865,-2.6981156,9.364471,1.0931027
1500974780233,-0.7679402,-10.854563,2.137274,3.4368765,8.974665,-1.9527707
1500974780256,-0.7679402,-10.854563,2.137274,3.4368765,8.974665,-1.9527707
1500974780278,-4.350863,-8.520664,0.10295067,6.39611,7.429657,0.24196401
1500974780301,-4.350863,-8.520664,0.10295067,6.39611,7.429657,0.24196401
1500974780325,-4.350863,-8.520664,0.10295067,6.39611,7.429657,0.24196401
1500974780347,-5.446659,-3.031209,-6.604854,6.192453,2.2269068,7.270592
1500974780370,-5.446659,-3.031209,-6.604854,6.192453,2.2269068,7.270592
1500974780392,-23.035662,20.516064,-8.970924,3.3565211,-0.95109665,9.165004
1500974780416,-23.035662,20.516064,-8.970924,3.3565211,-0.95109665,9.165004
1500974780438,-23.035662,20.516064,-8.970924,3.3565211,-0.95109665,9.165004
1500974780465,-3.2070332,2.255787,-0.021996727,6.482301,-2.1490953,7.037756
1500974780488,-3.2070332,2.255787,-0.021996727,6.482301,-2.1490953,7.037756
1500974780511,-3.2070332,2.255787,-0.021996727,6.482301,-2.1490953,7.037756
1500974780534,1.0515034,1.8227357,-1.5771804,8.286482,-2.6372132,4.532972
1500974780558,1.0515034,1.8227357,-1.5771804,8.286482,-2.6372132,4.532972
1500974780581,9.445575,2.1820157,0.556203,9.526079,0.38172552,2.2972364
1500974780604,9.445575,2.1820157,0.556203,9.526079,0.38172552,2.2972364
1500974780627,9.445575,2.1820157,0.556203,9.526079,0.38172552,2.2972364
1500974780649,-2.4652796,1.8314147,-1.816451,9.138518,-0.098461546,3.555988
1500974780672,-2.4652796,1.8314147,-1.816451,9.138518,-0.098461546,3.555988
1500974780695,-2.4652796,1.8314147,-1.816451,9.138518,-0.098461546,3.555988
1500974780717,0.8740333,0.49559975,-4.7131357,5.2611084,0.38621467,8.266879
1500974780740,0.8740333,0.49559975,-4.7131357,5.2611084,0.38621467,8.266879
1500974780762,6.190508,-0.07676409,4.685602,-1.2189479,0.14873978,9.729437
1500974780785,6.190508,-0.07676409,4.685602,-1.2189479,0.14873978,9.729437
1500974780808,6.190508,-0.07676409,4.685602,-1.2189479,0.14873978,9.729437
1500974780830,-2.6611552,-0.33758244,4.84347,1.1899183,0.27548283,9.7301855
1500974780853,-2.6611552,-0.33758244,4.84347,1.1899183,0.27548283,9.7301855
1500974780875,-2.6611552,-0.33758244,4.84347,1.1899183,0.27548283,9.7301855
1500974780897,-1.0808325,-0.28146833,-0.50622404,0.17761984,0.2475006,9.801862
1500974780920,-1.0808325,-0.28146833,-0.50622404,0.17761984,0.2475006,9.801862
1500974780942,-0.87807345,-0.049530048,-2.4323592,0.1448492,0.29029694,9.801263
1500974780964,-0.87807345,-0.049530048,-2.4323592,0.1448492,0.29029694,9.801263
1500974780986,-0.87807345,-0.049530048,-2.4323592,0.1448492,0.29029694,9.801263
1500974781009,-0.50607437,-0.08304887,-0.80355394,0.03441665,0.30526072,9.801712
1500974781032,-0.50607437,-0.08304887,-0.80355394,0.03441665,0.30526072,9.801712
1500974781056,-0.2275988,0.082300685,-0.35419223,-0.079457566,0.29493573,9.801862
1500974781084,-0.2275988,0.082300685,-0.35419223,-0.079457566,0.29493573,9.801862
1500974781106,-0.2275988,0.082300685,-0.35419223,-0.079457566,0.29493573,9.801862
1500974781130,-0.09711481,-0.014963761,0.26321256,-0.1213561,0.30900165,9.800964
1500974781153,-0.09711481,-0.014963761,0.26321256,-0.1213561,0.30900165,9.800964
1500974781175,-0.13377602,0.022146367,0.064493805,-0.16729484,0.30660746,9.800365
1500974781196,-0.13377602,0.022146367,0.064493805,-0.16729484,0.30660746,9.800365
1500974781219,-0.08693945,0.005686229,0.0700304,-0.1949778,0.31468788,9.799617
1500974781242,-0.08693945,0.005686229,0.0700304,-0.1949778,0.31468788,9.799617
1500974781265,0.034566287,-0.012120646,0.013317747,-0.20395605,0.31334114,9.799467
1500974781286,0.034566287,-0.012120646,0.013317747,-0.20395605,0.31334114,9.799467
1500974781309,-0.14036007,0.087687634,-0.1683423,-0.20739773,0.30151978,9.799767
1500974781333,-0.14036007,0.087687634,-0.1683423,-0.20739773,0.30151978,9.799767
1500974781355,-0.017657237,-0.016609775,-0.008678981,-0.20859483,0.29328972,9.799916
1500974781376,-0.017657237,-0.016609775,-0.008678981,-0.20859483,0.29328972,9.799916
1500974781399,-0.092176765,0.03187281,0.07466917,-0.20051439,0.28790274,9.800365
1500974781422,-0.092176765,0.03187281,0.07466917,-0.20051439,0.28790274,9.800365
1500974781445,-0.092176765,0.03187281,0.07466917,-0.20051439,0.28790274,9.800365
1500974781466,-0.30690673,-1.3744214,5.8276367,-0.25692776,0.12659341,9.802461
1500974781488,-0.30690673,-1.3744214,5.8276367,-0.25692776,0.12659341,9.802461
1500974781514,-0.009277532,-0.102651395,1.1899183,-0.23373394,0.15248072,9.80261
1500974781536,-0.009277532,-0.102651395,1.1899183,-0.23373394,0.15248072,9.80261
1500974781558,-0.22415714,0.037409402,0.11162966,-0.22834699,0.2793734,9.799916
1500974781580,-0.22415714,0.037409402,0.11162966,-0.22834699,0.2793734,9.799916
1500974781602,-0.06120178,-0.110133275,-0.13078327,-0.26560676,0.3084031,9.7981205
1500974781624,-0.06120178,-0.110133275,-0.13078327,-0.26560676,0.3084031,9.7981205
1500974781646,-0.06120178,-0.110133275,-0.13078327,-0.26560676,0.3084031,9.7981205
