@ HyperIMU - ianovir - 2017
@ Date: Tue Jul 25 15:39:56 GMT+02:00 2017, Sampling Time: 20ms

timestamp,MPL_Gyroscope.x,MPL_Gyroscope.y,MPL_Gyroscope.z,MPL_Accelerometer.x,MPL_Accelerometer.y,MPL_Accelerometer.z,MPL_Rotation_Vector.x,MPL_Rotation_Vector.y,MPL_Rotation_Vector.z,MPL_Linear_Acceleration.x,MPL_Linear_Acceleration.y,MPL_Linear_Acceleration.z,MPL_Gravity.x,MPL_Gravity.y,MPL_Gravity.z
1500989996591,-6.231797E-4,-0.0013329121,-6.2717445E-4,0.118213706,0.054468088,9.834333,-3.307173E-4,-0.0049819546,-0.160567,0.006434417,0.07631518,0.012120646,0.097414084,0.009277532,9.806051
1500989996616,-6.231797E-4,-0.0013329121,-6.2717445E-4,0.118213706,0.054468088,9.834333,-3.307173E-4,-0.0049819546,-0.160567,0.006434417,0.07631518,0.012120646,0.097414084,0.009277532,9.806051
1500989996639,-6.231797E-4,-2.676477E-4,4.3809E-4,0.099060096,0.08259996,9.891195,4.2959955E-4,-0.005050202,-0.05855378,0.012120646,0.06434417,0.06838439,0.09831191,0.014065935,9.806051
1500989996662,-6.231797E-4,-2.676477E-4,4.3809E-4,0.099060096,0.08259996,9.891195,4.2959955E-4,-0.005050202,-0.05855378,0.012120646,0.06434417,0.06838439,0.09831191,0.014065935,9.806051
1500989996685,-0.0016884442,0.0018628811,-6.2717445E-4,0.109834,0.074818805,9.851092,7.057013E-4,-0.005074295,-0.033897426,0.0175076,0.06254852,0.106093064,0.09891046,0.017058687,9.806051
1500989996711,-6.231797E-4,7.976167E-4,4.3809E-4,0.0966659,0.093972415,9.906159,9.250622E-4,-0.005110166,-0.019686809,0.0070329676,0.07990648,0.09891046,0.09980828,0.020051438,9.806051
1500989996734,-6.231797E-4,-2.676477E-4,0.0015033544,0.13736732,0.05865794,9.8481,0.0011303443,-0.0051396666,-0.012229574,0.022595279,0.03232172,0.119859725,0.10040683,0.023343466,9.806051
1500989996758,-6.231797E-4,-2.676477E-4,0.0015033544,0.13736732,0.05865794,9.8481,0.0011303443,-0.0051396666,-0.012229574,0.022595279,0.03232172,0.119859725,0.10040683,0.023343466,9.806051
1500989996782,-6.231797E-4,-2.676477E-4,0.0015033544,0.13736732,0.05865794,9.8481,0.0011303443,-0.0051396666,-0.012229574,0.022595279,0.03232172,0.119859725,0.10040683,0.023343466,9.806051
1500989996805,-6.231797E-4,-0.0023981766,4.3809E-4,0.1110311,0.0676362,9.827749,0.001262336,-0.0051530357,-0.008861053,0.026485857,0.06419453,0.06060323,0.10070611,0.02558803,9.806051
1500989996828,-6.231797E-4,-0.0023981766,4.3809E-4,0.1110311,0.0676362,9.827749,0.001262336,-0.0051530357,-0.008861053,0.026485857,0.06419453,0.06060323,0.10070611,0.02558803,9.806051
1500989996852,-6.231797E-4,-0.0023981766,4.3809E-4,0.1110311,0.0676362,9.827749,0.001262336,-0.0051530357,-0.008861053,0.026485857,0.06419453,0.06060323,0.10070611,0.02558803,9.806051
1500989996876,4.4208474E-4,-2.676477E-4,-6.2717445E-4,0.118213706,0.08619126,9.886407,0.0015200591,-0.005207817,-0.008337433,0.019452889,0.049081136,0.0863409,0.10175357,0.030526072,9.806051
1500989996899,4.4208474E-4,-2.676477E-4,-6.2717445E-4,0.118213706,0.08619126,9.886407,0.0015200591,-0.005207817,-0.008337433,0.019452889,0.049081136,0.0863409,0.10175357,0.030526072,9.806051
1500989996923,4.4208474E-4,-2.676477E-4,-6.2717445E-4,0.118213706,0.08619126,9.886407,0.0015200591,-0.005207817,-0.008337433,0.019452889,0.049081136,0.0863409,0.10175357,0.030526072,9.806051
1500989996949,-0.0012317119,0.00218033,2.9960563E-4,0.12240356,0.08259996,9.861866,0.0017640274,-0.005289944,-0.0114827445,0.004189853,0.040851068,0.018255789,0.103249945,0.035763387,9.805902
1500989996971,-0.0012317119,0.00218033,2.9960563E-4,0.12240356,0.08259996,9.861866,0.0017640274,-0.005289944,-0.0114827445,0.004189853,0.040851068,0.018255789,0.103249945,0.035763387,9.805902
1500989996995,-0.0022969765,-0.0020807278,2.9960563E-4,0.09487024,0.09636662,9.908553,0.0018540686,-0.0053142495,-0.013653661,0.006135142,0.050278235,0.04997896,0.103698865,0.037708677,9.805902
1500989997019,-0.0022969765,-0.0020807278,2.9960563E-4,0.09487024,0.09636662,9.908553,0.0018540686,-0.0053142495,-0.013653661,0.006135142,0.050278235,0.04997896,0.103698865,0.037708677,9.805902
1500989997044,-0.0022969765,-0.0020807278,2.9960563E-4,0.09487024,0.09636662,9.908553,0.0018540686,-0.0053142495,-0.013653661,0.006135142,0.050278235,0.04997896,0.103698865,0.037708677,9.805902
1500989997069,-0.0022969765,-0.0010154633,-0.0018309233,0.11462241,0.074220255,9.860071,0.0020519411,-0.0053349035,-0.018163906,0.019153614,0.030376434,0.05955577,0.1038485,0.042048167,9.805902
1500989997093,-0.0022969765,-0.0010154633,-0.0018309233,0.11462241,0.074220255,9.860071,0.0020519411,-0.0053349035,-0.018163906,0.019153614,0.030376434,0.05955577,0.1038485,0.042048167,9.805902
1500989997117,-1.6644757E-4,-0.0010154633,2.9960563E-4,0.12419921,0.06703765,9.861866,0.0021380447,-0.0053350814,-0.020618128,0.007930793,0.06494272,0.080505036,0.103698865,0.043993454,9.805902
1500989997142,8.9881686E-4,0.00218033,-7.656588E-4,0.11881226,0.0712275,9.875633,0.0021380447,-0.0053350814,-0.020618128,0.007930793,0.03441665,0.08888474,0.103698865,0.043993454,9.805902
1500989997165,8.9881686E-4,0.00218033,-7.656588E-4,0.11881226,0.0712275,9.875633,0.0021380447,-0.0053350814,-0.020618128,0.007930793,0.03441665,0.08888474,0.103698865,0.043993454,9.805902
1500989997189,0.0019640813,4.980111E-5,2.9960563E-4,0.11941081,0.092775315,9.875633,0.002207812,-0.005375663,-0.022955636,1.496376E-4,0.046537295,0.017058687,0.104297414,0.04563947,9.805902
1500989997214,-1.6644757E-4,4.980111E-5,0.00136487,0.103249945,0.08259996,9.866056,0.0023022601,-0.0053997682,-0.025366554,0.019003976,0.018704701,0.045789108,0.10459669,0.047734395,9.805902
1500989997237,-1.6644757E-4,4.980111E-5,0.00136487,0.103249945,0.08259996,9.866056,0.0023022601,-0.0053997682,-0.025366554,0.019003976,0.018704701,0.045789108,0.10459669,0.047734395,9.805902
1500989997263,-9.986854E-5,-0.002130529,2.828277E-4,0.09726445,0.08738836,9.931897,0.0024120677,-0.005437934,-0.030093981,0.006584055,0.017208325,0.11462241,0.1050456,0.050427873,9.805902
1500989997287,-9.986854E-5,-0.002130529,2.828277E-4,0.09726445,0.08738836,9.931897,0.0024120677,-0.005437934,-0.030093981,0.006584055,0.017208325,0.11462241,0.1050456,0.050427873,9.805902
1500989997310,-9.986854E-5,-0.002130529,2.828277E-4,0.09726445,0.08738836,9.931897,0.0024120677,-0.005437934,-0.030093981,0.006584055,0.017208325,0.11462241,0.1050456,0.050427873,9.805902
1500989997337,-9.986854E-5,0.002130529,-7.8243675E-4,0.10803835,0.074220255,9.93489,0.0025365222,-0.0054768417,-0.034607578,-0.0028431145,0.026785132,0.08948329,0.105494514,0.053420626,9.805902
1500989997361,-9.986854E-5,0.002130529,-7.8243675E-4,0.10803835,0.074220255,9.93489,0.0025365222,-0.0054768417,-0.034607578,-0.0028431145,0.026785132,0.08948329,0.105494514,0.053420626,9.805902
1500989997384,-9.986854E-5,0.002130529,-7.8243675E-4,0.10803835,0.074220255,9.93489,0.0025365222,-0.0054768417,-0.034607578,-0.0028431145,0.026785132,0.08948329,0.105494514,0.053420626,9.805902
1500989997407,0.0020306604,0.002130529,0.0013480921,0.11522096,0.0688333,9.888802,0.0026466772,-0.005518916,-0.038809303,-0.004638766,0.026635494,0.11043255,0.106093064,0.055964466,9.805902
1500989997431,0.0020306604,0.002130529,0.0013480921,0.11522096,0.0688333,9.888802,0.0026466772,-0.005518916,-0.038809303,-0.004638766,0.026635494,0.11043255,0.106093064,0.055964466,9.805902
1500989997457,0.0020306604,0.002130529,0.0013480921,0.11522096,0.0688333,9.888802,0.0026466772,-0.005518916,-0.038809303,-0.004638766,0.026635494,0.11043255,0.106093064,0.055964466,9.805902
1500989997482,0.0030959249,0.0,-7.8243675E-4,0.09307459,0.06943185,9.875633,0.0027138777,-0.0055329073,-0.040968563,5.985504E-4,0.010025719,0.07032967,0.1062427,0.05761048,9.805902
1500989997506,0.0030959249,0.0,-7.8243675E-4,0.09307459,0.06943185,9.875633,0.0027138777,-0.0055329073,-0.040968563,5.985504E-4,0.010025719,0.07032967,0.1062427,0.05761048,9.805902
1500989997529,0.0030959249,0.0,-7.8243675E-4,0.09307459,0.06943185,9.875633,0.0027138777,-0.0055329073,-0.040968563,5.985504E-4,0.010025719,0.07032967,0.1062427,0.05761048,9.805902
1500989997555,5.824333E-4,0.0012815131,0.0014479606,0.11043255,0.090979666,9.852289,0.0028036404,-0.005562735,-0.044849355,0.0034416649,0.034865562,0.096815534,0.10639234,0.059705406,9.805753
1500989997579,5.824333E-4,0.0012815131,0.0014479606,0.11043255,0.090979666,9.852289,0.0028036404,-0.005562735,-0.044849355,0.0034416649,0.034865562,0.096815534,0.10639234,0.059705406,9.805753
1500989997604,5.824333E-4,0.0012815131,0.0014479606,0.11043255,0.090979666,9.852289,0.0028036404,-0.005562735,-0.044849355,0.0034416649,0.034865562,0.096815534,0.10639234,0.059705406,9.805753
1500989997629,-0.00261336,0.0023467776,0.0014479606,0.100257196,0.10055647,9.88102,0.0028953757,-0.0056024417,-0.048722114,0.008379706,0.016460137,0.042347442,0.10684125,0.06194997,9.805753
1500989997655,-0.00261336,0.0023467776,0.0014479606,0.100257196,0.10055647,9.88102,0.0028953757,-0.0056024417,-0.048722114,0.008379706,0.016460137,0.042347442,0.10684125,0.06194997,9.805753
1500989997683,-0.00261336,0.0023467776,0.0014479606,0.100257196,0.10055647,9.88102,0.0028953757,-0.0056024417,-0.048722114,0.008379706,0.016460137,0.042347442,0.10684125,0.06194997,9.805753
1500989997707,0.0016476978,0.0012815131,-6.825682E-4,0.117615156,0.0676362,9.878626,0.0029903827,-0.005659151,-0.052403476,0.014664485,0.009277532,0.030376434,0.107739076,0.06434417,9.805753
1500989997730,0.0016476978,0.0012815131,-6.825682E-4,0.117615156,0.0676362,9.878626,0.0029903827,-0.005659151,-0.052403476,0.014664485,0.009277532,0.030376434,0.107739076,0.06434417,9.805753
1500989997754,0.0016476978,-8.490158E-4,3.8269625E-4,0.098461546,0.09995792,9.891195,0.0030330243,-0.0056871446,-0.054225948,0.008379706,0.015412673,0.080056116,0.10803835,0.06539164,9.805753
1500989997778,0.0016476978,-8.490158E-4,3.8269625E-4,0.098461546,0.09995792,9.891195,0.0030330243,-0.0056871446,-0.054225948,0.008379706,0.015412673,0.080056116,0.10803835,0.06539164,9.805753
1500989997800,0.0016476978,-8.490158E-4,3.8269625E-4,0.098461546,0.09995792,9.891195,0.0030330243,-0.0056871446,-0.054225948,0.008379706,0.015412673,0.080056116,0.10803835,0.06539164,9.805753
1500989997823,0.0016476978,-8.490158E-4,-6.825682E-4,0.11402386,0.089184016,9.86845,0.0030846298,-0.005742655,-0.057575185,0.0068833297,0.019452889,0.014215573,0.108936176,0.066738375,9.805753
1500989997846,0.0016476978,-8.490158E-4,-6.825682E-4,0.11402386,0.089184016,9.86845,0.0030846298,-0.005742655,-0.057575185,0.0068833297,0.019452889,0.014215573,0.108936176,0.066738375,9.805753
1500989997868,0.0016476978,-8.490158E-4,-6.825682E-4,0.11402386,0.089184016,9.86845,0.0030846298,-0.005742655,-0.057575185,0.0068833297,0.019452889,0.014215573,0.108936176,0.066738375,9.805753
1500989997891,5.326322E-4,-0.0018309233,4.3276369E-4,0.11342531,0.08678981,9.866654,0.0031235106,-0.0057586087,-0.05922175,0.0073322426,0.030376434,0.09023148,0.10908581,0.06778584,9.805753
1500989997913,5.326322E-4,-0.0018309233,4.3276369E-4,0.11342531,0.08678981,9.866654,0.0031235106,-0.0057586087,-0.05922175,0.0073322426,0.030376434,0.09023148,0.10908581,0.06778584,9.805753
1500989997937,-5.326322E-4,0.0024301345,4.3276369E-4,0.102052845,0.09636662,9.869049,0.003178888,-0.0057908157,-0.062120926,-0.0055365916,0.009277532,0.054917,0.10938509,0.069132574,9.805753
1500989997960,-5.326322E-4,0.0024301345,4.3276369E-4,0.102052845,0.09636662,9.869049,0.003178888,-0.0057908157,-0.062120926,-0.0055365916,0.009277532,0.054917,0.10938509,0.069132574,9.805753
1500989997983,5.326322E-4,-7.656588E-4,0.001498028,0.11941081,0.08020575,9.866056,0.0032380726,-0.0057797134,-0.06351017,0.010324995,0.009726444,0.060303956,0.10908581,0.07047931,9.805753
1500989998006,5.326322E-4,-7.656588E-4,0.001498028,0.11941081,0.08020575,9.866056,0.0032380726,-0.0057797134,-0.06351017,0.010324995,0.009726444,0.060303956,0.10908581,0.07047931,9.805753
1500989998028,5.326322E-4,-7.656588E-4,0.001498028,0.11941081,0.08020575,9.866056,0.0032380726,-0.0057797134,-0.06351017,0.010324995,0.009726444,0.060303956,0.10908581,0.07047931,9.805753
1500989998053,-0.0026631611,-0.0018309233,-0.0016977652,0.12240356,0.06404489,9.884611,0.0032601403,-0.0058122734,-0.06483621,-0.011073183,-4.4891282E-4,0.08185177,0.109534726,0.07107786,9.805753
1500989998075,-0.0026631611,-0.0018309233,-0.0016977652,0.12240356,0.06404489,9.884611,0.0032601403,-0.0058122734,-0.06483621,-0.011073183,-4.4891282E-4,0.08185177,0.109534726,0.07107786,9.805753
1500989998100,0.0015978967,-7.656588E-4,4.3276369E-4,0.12479776,0.10235212,9.908553,0.0032765083,-0.0057970015,-0.06639346,0.015113398,0.02124854,0.08604162,0.10908581,0.07152677,9.805753
1500989998126,-5.326322E-4,-0.0018309233,-0.0016977652,0.11222821,0.08080431,9.892991,0.0033063218,-0.0058393003,-0.0679475,0.0023942017,0.008379706,0.08723872,0.109834,0.0724246,9.805753
1500989998149,-5.326322E-4,-0.0018309233,-0.0016977652,0.11222821,0.08080431,9.892991,0.0033063218,-0.0058393003,-0.0679475,0.0023942017,0.008379706,0.08723872,0.109834,0.0724246,9.805753
1500989998174,3.1611722E-4,-0.0016146746,5.158543E-4,0.12120646,0.093972415,9.860071,0.0033580577,-0.005873561,-0.07061616,0.0104746325,0.014215573,0.0688333,0.110133275,0.07377134,9.805603
1500989998197,3.1611722E-4,-0.0016146746,5.158543E-4,0.12120646,0.093972415,9.860071,0.0033580577,-0.005873561,-0.07061616,0.0104746325,0.014215573,0.0688333,0.110133275,0.07377134,9.805603
1500989998221,0.0013813816,-0.0016146746,5.158543E-4,0.11581951,0.10235212,9.819968,0.0033703623,-0.005893031,-0.071765564,-0.012569559,-0.0047884034,0.10534488,0.11043255,0.074220255,9.805603
1500989998245,0.0013813816,-5.494101E-4,-0.0016146746,0.1062427,0.08259996,9.867852,0.0033703623,-0.005893031,-0.071765564,0.002992752,0.008978256,0.05267244,0.11043255,0.074220255,9.805603
1500989998275,0.0013813816,-5.494101E-4,-0.0016146746,0.1062427,0.08259996,9.867852,0.0033703623,-0.005893031,-0.071765564,0.002992752,0.008978256,0.05267244,0.11043255,0.074220255,9.805603
1500989998300,3.1611722E-4,0.0015811187,5.158543E-4,0.10923545,0.08200141,9.86845,0.003394233,-0.0059132203,-0.073849924,-0.0038905777,-0.010175358,0.073023155,0.110731825,0.074818805,9.805603
1500989998324,3.1611722E-4,0.0015811187,5.158543E-4,0.10923545,0.08200141,9.86845,0.003394233,-0.0059132203,-0.073849924,-0.0038905777,-0.010175358,0.073023155,0.110731825,0.074818805,9.805603
1500989998348,3.1611722E-4,5.158543E-4,-5.494101E-4,0.1038485,0.076614454,9.896583,0.003434686,-0.0059287855,-0.07498314,0.0163105,-0.0028431145,0.04070143,0.11088146,0.07586627,9.805603
1500989998372,3.1611722E-4,5.158543E-4,-5.494101E-4,0.1038485,0.076614454,9.896583,0.003434686,-0.0059287855,-0.07498314,0.0163105,-0.0028431145,0.04070143,0.11088146,0.07586627,9.805603
1500989998395,3.1611722E-4,5.158543E-4,-5.494101E-4,0.1038485,0.076614454,9.896583,0.003434686,-0.0059287855,-0.07498314,0.0163105,-0.0028431145,0.04070143,0.11088146,0.07586627,9.805603
1500989998418,-7.491472E-4,-5.494101E-4,-5.494101E-4,0.1074398,0.091578215,9.817574,0.003463841,-0.0059378073,-0.077073984,-0.0104746325,0.009576807,0.04309563,0.110731825,0.076614454,9.805603
1500989998441,-7.491472E-4,-5.494101E-4,-5.494101E-4,0.1074398,0.091578215,9.817574,0.003463841,-0.0059378073,-0.077073984,-0.0104746325,0.009576807,0.04309563,0.110731825,0.076614454,9.805603
1500989998463,-7.491472E-4,-5.494101E-4,-5.494101E-4,0.11342531,0.092775315,9.903167,0.003486867,-0.005928482,-0.0781124,-0.01316811,0.020949265,0.047285482,0.11043255,0.077213004,9.805603
1500989998486,-7.491472E-4,-5.494101E-4,-5.494101E-4,0.11342531,0.092775315,9.903167,0.003486867,-0.005928482,-0.0781124,-0.01316811,0.020949265,0.047285482,0.11043255,0.077213004,9.805603
1500989998508,-7.491472E-4,-5.494101E-4,-5.494101E-4,0.11342531,0.092775315,9.903167,0.003486867,-0.005928482,-0.0781124,-0.01316811,0.020949265,0.047285482,0.11043255,0.077213004,9.805603
1500989998532,2.1624868E-4,3.3289514E-4,-0.0015148061,0.1050456,0.07182605,9.88102,0.0035093455,-0.005934651,-0.07912769,-0.0055365916,-0.005985504,0.075417355,0.11058219,0.077811554,9.805603
1500989998556,2.1624868E-4,3.3289514E-4,-0.0015148061,0.1050456,0.07182605,9.88102,0.0035093455,-0.005934651,-0.07912769,-0.0055365916,-0.005985504,0.075417355,0.11058219,0.077811554,9.805603
1500989998584,0.0012815131,3.3289514E-4,-0.0015148061,0.12659341,0.09935937,9.892991,0.0035095345,-0.0059096357,-0.081095226,-5.985504E-4,0.007631518,0.092775315,0.109834,0.07796119,9.805603
1500989998607,0.0012815131,3.3289514E-4,-0.0015148061,0.12659341,0.09935937,9.892991,0.0035095345,-0.0059096357,-0.081095226,-5.985504E-4,0.007631518,0.092775315,0.109834,0.07796119,9.805603
1500989998630,0.0012815131,0.0013981595,6.1572285E-4,0.12060791,0.08140286,9.8481,0.003535089,-0.0059138024,-0.081976496,0.010773907,-0.004938041,0.092176765,0.109834,0.07855974,9.805603
1500989998652,0.0012815131,0.0013981595,6.1572285E-4,0.12060791,0.08140286,9.8481,0.003535089,-0.0059138024,-0.081976496,0.010773907,-0.004938041,0.092176765,0.109834,0.07855974,9.805603
1500989998677,2.1624868E-4,-0.0028628982,6.1572285E-4,0.11222821,0.0796072,9.863662,0.0035391226,-0.005909414,-0.08277815,0.008529344,-2.992752E-4,0.1388637,0.10968436,0.07870938,9.805603
1500989998699,2.1624868E-4,-0.0028628982,6.1572285E-4,0.11222821,0.0796072,9.863662,0.0035391226,-0.005909414,-0.08277815,0.008529344,-2.992752E-4,0.1388637,0.10968436,0.07870938,9.805603
1500989998722,2.1624868E-4,-0.0028628982,6.1572285E-4,0.11222821,0.0796072,9.863662,0.0035391226,-0.005909414,-0.08277815,0.008529344,-2.992752E-4,0.1388637,0.10968436,0.07870938,9.805603
1500989998745,2.1624868E-4,0.0013981595,0.0016809873,0.084096335,0.090381116,9.860071,0.0035489565,-0.005958111,-0.084096394,0.0028431145,0.009427169,0.05925649,0.11058219,0.07915829,9.805603
1500989998768,2.1624868E-4,0.0013981595,0.0016809873,0.084096335,0.090381116,9.860071,0.0035489565,-0.005958111,-0.084096394,0.0028431145,0.009427169,0.05925649,0.11058219,0.07915829,9.805603
1500989998790,2.1624868E-4,-7.323693E-4,6.1572285E-4,0.103249945,0.079008654,9.951051,0.0035661235,-0.0059494907,-0.08469727,0.0163105,-0.007631518,0.08499416,0.11028291,0.079457566,9.805603
1500989998811,2.1624868E-4,-7.323693E-4,6.1572285E-4,0.103249945,0.079008654,9.951051,0.0035661235,-0.0059494907,-0.08469727,0.0163105,-0.007631518,0.08499416,0.11028291,0.079457566,9.805603
1500989998835,2.1624868E-4,-7.323693E-4,6.1572285E-4,0.103249945,0.079008654,9.951051,0.0035661235,-0.0059494907,-0.08469727,0.0163105,-0.007631518,0.08499416,0.11028291,0.079457566,9.805603
1500989998858,-6.825682E-4,0.0012317119,-5.659217E-4,0.102651395,0.095768064,9.86845,0.0035691727,-0.005937974,-0.08571582,-0.025288755,0.014963761,0.06943185,0.10998364,0.0796072,9.805603
1500989998882,-6.825682E-4,0.0012317119,-5.659217E-4,0.102651395,0.095768064,9.86845,0.0035691727,-0.005937974,-0.08571582,-0.025288755,0.014963761,0.06943185,0.10998364,0.0796072,9.805603
1500989998906,-6.825682E-4,0.0012317119,-5.659217E-4,0.102651395,0.095768064,9.86845,0.0035691727,-0.005937974,-0.08571582,-0.025288755,0.014963761,0.06943185,0.10998364,0.0796072,9.805603
1500989998930,3.8269625E-4,1.6644757E-4,4.993427E-4,0.118213706,0.09696517,9.829545,0.0035804082,-0.0059534553,-0.086810224,-0.0074818805,0.01690905,0.054468088,0.110133275,0.080056116,9.805603
1500989998953,3.8269625E-4,1.6644757E-4,4.993427E-4,0.118213706,0.09696517,9.829545,0.0035804082,-0.0059534553,-0.086810224,-0.0074818805,0.01690905,0.054468088,0.110133275,0.080056116,9.805603
1500989998977,3.8269625E-4,1.6644757E-4,4.993427E-4,0.118213706,0.09696517,9.829545,0.0035804082,-0.0059534553,-0.086810224,-0.0074818805,0.01690905,0.054468088,0.110133275,0.080056116,9.805603
1500989999001,0.0025132252,1.6644757E-4,-5.659217E-4,0.11462241,0.090979666,9.904364,0.0035782484,-0.0059626848,-0.08867153,0.0074818805,0.009576807,0.06823475,0.110133275,0.08020575,9.805603
1500989999024,0.0025132252,1.6644757E-4,-5.659217E-4,0.11462241,0.090979666,9.904364,0.0035782484,-0.0059626848,-0.08867153,0.0074818805,0.009576807,0.06823475,0.110133275,0.08020575,9.805603
1500989999046,0.0025132252,1.6644757E-4,-5.659217E-4,0.11462241,0.090979666,9.904364,0.0035782484,-0.0059626848,-0.08867153,0.0074818805,0.009576807,0.06823475,0.110133275,0.08020575,9.805603
1500989999071,-6.825682E-4,0.0012317119,-5.659217E-4,0.11342531,0.089782566,9.8576765,0.0036016526,-0.005964107,-0.08985574,-0.0038905777,5.985504E-4,0.089184016,0.110133275,0.08080431,9.805603
1500989999094,-6.825682E-4,0.0012317119,-5.659217E-4,0.11342531,0.089782566,9.8576765,0.0036016526,-0.005964107,-0.08985574,-0.0038905777,5.985504E-4,0.089184016,0.110133275,0.08080431,9.805603
1500989999117,-6.825682E-4,0.0012317119,-5.659217E-4,0.11342531,0.089782566,9.8576765,0.0036016526,-0.005964107,-0.08985574,-0.0038905777,5.985504E-4,0.089184016,0.110133275,0.08080431,9.805603
1500989999140,4.660532E-4,-2.8309404E-4,4.660532E-4,0.11402386,0.09756372,9.851691,0.0036416491,-0.005968338,-0.09068831,0.004040215,0.028431145,0.079008654,0.10998364,0.081702136,9.805603
1500989999163,4.660532E-4,-2.8309404E-4,4.660532E-4,0.11402386,0.09756372,9.851691,0.0036416491,-0.005968338,-0.09068831,0.004040215,0.028431145,0.079008654,0.10998364,0.081702136,9.805603
1500989999186,4.660532E-4,-2.8309404E-4,4.660532E-4,0.11402386,0.09756372,9.851691,0.0036416491,-0.005968338,-0.09068831,0.004040215,0.028431145,0.079008654,0.10998364,0.081702136,9.805603
1500989999211,0.0015313176,-0.0034788873,-5.9921126E-4,0.118213706,0.078410104,9.910948,0.0036395444,-0.0059904996,-0.09153739,-0.019153614,-0.017058687,0.03232172,0.11043255,0.081702136,9.805603
1500989999236,0.0015313176,-0.0034788873,-5.9921126E-4,0.118213706,0.078410104,9.910948,0.0036395444,-0.0059904996,-0.09153739,-0.019153614,-0.017058687,0.03232172,0.11043255,0.081702136,9.805603
1500989999260,0.0015313176,-0.0034788873,-5.9921126E-4,0.118213706,0.078410104,9.910948,0.0036395444,-0.0059904996,-0.09153739,-0.019153614,-0.017058687,0.03232172,0.11043255,0.081702136,9.805603
1500989999290,-5.9921126E-4,0.0018474348,-0.0016644757,0.100257196,0.11671733,9.823559,0.0036623767,-0.0060118428,-0.09296102,-0.0175076,0.029478608,0.0688333,0.11058219,0.08245032,9.805603
1500989999314,-5.9921126E-4,0.0018474348,-0.0016644757,0.100257196,0.11671733,9.823559,0.0036623767,-0.0060118428,-0.09296102,-0.0175076,0.029478608,0.0688333,0.11058219,0.08245032,9.805603
1500989999337,-5.9921126E-4,0.0018474348,-0.0016644757,0.100257196,0.11671733,9.823559,0.0036623767,-0.0060118428,-0.09296102,-0.0175076,0.029478608,0.0688333,0.11058219,0.08245032,9.805603
1500989999360,4.660532E-4,-0.0013483585,-5.9921126E-4,0.084096335,0.08200141,9.828946,0.0036750408,-0.006003323,-0.09368157,0.0017956513,0.011222821,0.093972415,0.11043255,0.0827496,9.805603
1500989999384,4.660532E-4,-0.0013483585,-5.9921126E-4,0.084096335,0.08200141,9.828946,0.0036750408,-0.006003323,-0.09368157,0.0017956513,0.011222821,0.093972415,0.11043255,0.0827496,9.805603
1500989999405,4.660532E-4,-0.0013483585,-5.9921126E-4,0.084096335,0.08200141,9.828946,0.0036750408,-0.006003323,-0.09368157,0.0017956513,0.011222821,0.093972415,0.11043255,0.0827496,9.805603
1500989999428,-5.9921126E-4,7.821704E-4,0.0015313176,0.1074398,0.090979666,9.927707,0.0036586383,-0.005991213,-0.09508776,0.005087679,0.020350715,0.038307227,0.110133275,0.08259996,9.805603
1500989999451,-5.9921126E-4,7.821704E-4,0.0015313176,0.1074398,0.090979666,9.927707,0.0036586383,-0.005991213,-0.09508776,0.005087679,0.020350715,0.038307227,0.110133275,0.08259996,9.805603
1500989999474,-5.9921126E-4,7.821704E-4,0.0015313176,0.1074398,0.090979666,9.927707,0.0036586383,-0.005991213,-0.09508776,0.005087679,0.020350715,0.038307227,0.110133275,0.08259996,9.805603
1500989999496,-5.9921126E-4,7.821704E-4,0.0015313176,0.1074398,0.090979666,9.927707,0.0036586383,-0.005991213,-0.09508776,0.005087679,0.020350715,0.038307227,0.110133275,0.08259996,9.805603
1500989999518,-0.0014815165,-0.001298291,-0.0028463865,0.11402386,0.095169514,9.865458,0.0036785742,-0.0059955437,-0.09628352,-0.03247136,0.0025438394,0.05207389,0.10998364,0.08304887,9.805603
1500989999541,-0.0014815165,-0.001298291,-0.0028463865,0.11402386,0.095169514,9.865458,0.0036785742,-0.0059955437,-0.09628352,-0.03247136,0.0025438394,0.05207389,0.10998364,0.08304887,9.805603
1500989999564,-0.002546781,-2.330266E-4,3.4940674E-4,0.10803835,0.06703765,9.828946,0.003672704,-0.005999906,-0.09680901,-0.009277532,0.0037409402,0.14544775,0.110133275,0.08304887,9.805603
1500989999586,-0.002546781,-2.330266E-4,3.4940674E-4,0.10803835,0.06703765,9.828946,0.003672704,-0.005999906,-0.09680901,-0.009277532,0.0037409402,0.14544775,0.110133275,0.08304887,9.805603
1500989999612,-0.002546781,-2.330266E-4,3.4940674E-4,0.10803835,0.06703765,9.828946,0.003672704,-0.005999906,-0.09680901,-0.009277532,0.0037409402,0.14544775,0.110133275,0.08304887,9.805603
1500989999635,-0.002546781,-2.330266E-4,3.4940674E-4,0.10803835,0.06703765,9.828946,0.003672704,-0.005999906,-0.09680901,-0.009277532,0.0037409402,0.14544775,0.110133275,0.08304887,9.805603
1500989999658,6.4901233E-4,-0.0023635554,3.4940674E-4,0.102651395,0.09636662,9.92651,0.0036423607,-0.0059884544,-0.09790728,-0.007182605,0.013916298,0.12090719,0.109834,0.08245032,9.805603
1500989999683,6.4901233E-4,-0.0023635554,3.4940674E-4,0.102651395,0.09636662,9.92651,0.0036423607,-0.0059884544,-0.09790728,-0.007182605,0.013916298,0.12090719,0.109834,0.08245032,9.805603
1500989999705,6.4901233E-4,-0.0023635554,3.4940674E-4,0.102651395,0.09636662,9.92651,0.0036423607,-0.0059884544,-0.09790728,-0.007182605,0.013916298,0.12090719,0.109834,0.08245032,9.805603
1500989999728,0.0017142767,-0.0034288198,3.4940674E-4,0.1110311,0.08619126,9.888203,0.0036105737,-0.006016828,-0.0993688,-0.006434417,0.013617022,0.061052144,0.11028291,0.08215105,9.805603
1500989999753,0.0017142767,-0.0034288198,3.4940674E-4,0.1110311,0.08619126,9.888203,0.0036105737,-0.006016828,-0.0993688,-0.006434417,0.013617022,0.061052144,0.11028291,0.08215105,9.805603
1500989999777,7.821704E-4,-0.001165133,4.3276369E-4,0.109834,0.110731825,9.867253,0.0036380114,-0.0060125235,-0.100288086,-0.0032920274,0.019602526,0.049081136,0.110133275,0.0827496,9.805603
1500989999801,7.821704E-4,-0.001165133,4.3276369E-4,0.109834,0.110731825,9.867253,0.0036380114,-0.0060125235,-0.100288086,-0.0032920274,0.019602526,0.049081136,0.110133275,0.0827496,9.805603
1500989999824,7.821704E-4,-0.001165133,4.3276369E-4,0.109834,0.110731825,9.867253,0.0036380114,-0.0060125235,-0.100288086,-0.0032920274,0.019602526,0.049081136,0.110133275,0.0827496,9.805603
1500989999846,0.0029126992,9.653959E-4,4.3276369E-4,0.09487024,0.090381116,9.880422,0.0036758808,-0.0060190614,-0.10131172,0.0020949265,0.022894554,0.05207389,0.110133275,0.08364742,9.805603
1500989999869,0.0029126992,9.653959E-4,4.3276369E-4,0.09487024,0.090381116,9.880422,0.0036758808,-0.0060190614,-0.10131172,0.0020949265,0.022894554,0.05207389,0.110133275,0.08364742,9.805603
1500989999892,0.0029126992,9.653959E-4,4.3276369E-4,0.09487024,0.090381116,9.880422,0.0036758808,-0.0060190614,-0.10131172,0.0020949265,0.022894554,0.05207389,0.110133275,0.08364742,9.805603
1500989999916,0.0029126992,9.653959E-4,4.3276369E-4,0.09487024,0.090381116,9.880422,0.0036758808,-0.0060190614,-0.10131172,0.0020949265,0.022894554,0.05207389,0.110133275,0.08364742,9.805603
1500989999939,-2.8309404E-4,-0.0022303974,-6.3250074E-4,0.11222821,0.09935937,9.812187,0.0036618076,-0.0059871087,-0.102429934,0.0028431145,0.016011223,0.006584055,0.10938509,0.08334815,9.805603
1500989999961,-2.8309404E-4,-0.0022303974,-6.3250074E-4,0.11222821,0.09935937,9.812187,0.0036618076,-0.0059871087,-0.102429934,0.0028431145,0.016011223,0.006584055,0.10938509,0.08334815,9.805603
1500989999984,-2.8309404E-4,-0.0022303974,-6.3250074E-4,0.11222821,0.09935937,9.812187,0.0036618076,-0.0059871087,-0.102429934,0.0028431145,0.016011223,0.006584055,0.10938509,0.08334815,9.805603
1500990000006,-2.8309404E-4,-0.001165133,4.3276369E-4,0.11222821,0.10414778,9.840918,0.0036231847,-0.0060085533,-0.1027684,-0.0077811554,0.035763387,0.008978256,0.109834,0.0827496,9.805603
1500990000029,-2.8309404E-4,-0.001165133,4.3276369E-4,0.11222821,0.10414778,9.840918,0.0036231847,-0.0060085533,-0.1027684,-0.0077811554,0.035763387,0.008978256,0.109834,0.0827496,9.805603
1500990000052,-2.8309404E-4,-0.001165133,4.3276369E-4,0.11222821,0.10414778,9.840918,0.0036231847,-0.0060085533,-0.1027684,-0.0077811554,0.035763387,0.008978256,0.109834,0.0827496,9.805603
1500990000074,7.821704E-4,9.653959E-4,0.001498028,0.0966659,0.08738836,9.8576765,0.003605783,-0.006023081,-0.10331882,-0.015861586,0.013916298,0.08439561,0.110133275,0.08245032,9.805603
1500990000098,7.821704E-4,9.653959E-4,0.001498028,0.0966659,0.08738836,9.8576765,0.003605783,-0.006023081,-0.10331882,-0.015861586,0.013916298,0.08439561,0.110133275,0.08245032,9.805603
1500990000123,7.821704E-4,9.653959E-4,0.001498028,0.0966659,0.08738836,9.8576765,0.003605783,-0.006023081,-0.10331882,-0.015861586,0.013916298,0.08439561,0.110133275,0.08245032,9.805603
1500990000149,3.4940674E-4,0.0024634239,-7.9894834E-4,0.12300211,0.11492168,9.937882,0.003614366,-0.0060166894,-0.10426349,0.0077811554,0.030974984,0.08259996,0.109834,0.0827496,9.805603
1500990000172,3.4940674E-4,0.0024634239,-7.9894834E-4,0.12300211,0.11492168,9.937882,0.003614366,-0.0060166894,-0.10426349,0.0077811554,0.030974984,0.08259996,0.109834,0.0827496,9.805603
1500990000197,3.4940674E-4,0.0024634239,-7.9894834E-4,0.12300211,0.11492168,9.937882,0.003614366,-0.0060166894,-0.10426349,0.0077811554,0.030974984,0.08259996,0.109834,0.0827496,9.805603
1500990000220,-7.158577E-4,-0.0017976337,2.663161E-4,0.10923545,0.088585466,9.817574,0.003633123,-0.0060164845,-0.10503829,0.0023942017,0.020949265,0.11372458,0.109834,0.08319851,9.805603
1500990000243,-7.158577E-4,-0.0017976337,2.663161E-4,0.10923545,0.088585466,9.817574,0.003633123,-0.0060164845,-0.10503829,0.0023942017,0.020949265,0.11372458,0.109834,0.08319851,9.805603
1500990000267,-7.158577E-4,-0.0017976337,2.663161E-4,0.10923545,0.088585466,9.817574,0.003633123,-0.0060164845,-0.10503829,0.0023942017,0.020949265,0.11372458,0.109834,0.08319851,9.805603
1500990000290,3.4940674E-4,3.3289514E-4,2.663161E-4,0.1086369,0.090979666,9.892991,0.0036195042,-0.006013451,-0.10570537,-4.4891282E-4,-0.002244564,0.089782566,0.10968436,0.08304887,9.805603
1500990000314,3.4940674E-4,3.3289514E-4,2.663161E-4,0.1086369,0.090979666,9.892991,0.0036195042,-0.006013451,-0.10570537,-4.4891282E-4,-0.002244564,0.089782566,0.10968436,0.08304887,9.805603
1500990000336,3.4940674E-4,3.3289514E-4,2.663161E-4,0.1086369,0.090979666,9.892991,0.0036195042,-0.006013451,-0.10570537,-4.4891282E-4,-0.002244564,0.089782566,0.10968436,0.08304887,9.805603
1500990000365,3.4940674E-4,-7.323693E-4,0.0013315806,0.10684125,0.06404489,9.847501,0.0035858974,-0.006041711,-0.10670594,-0.013617022,0.0043394906,0.10175357,0.11028291,0.08245032,9.805603
1500990000388,3.4940674E-4,-7.323693E-4,0.0013315806,0.10684125,0.06404489,9.847501,0.0035858974,-0.006041711,-0.10670594,-0.013617022,0.0043394906,0.10175357,0.11028291,0.08245032,9.805603
1500990000413,3.4940674E-4,-7.323693E-4,0.0013315806,0.10684125,0.06404489,9.847501,0.0035858974,-0.006041711,-0.10670594,-0.013617022,0.0043394906,0.10175357,0.11028291,0.08245032,9.805603
1500990000436,-8.1572623E-4,0.0015313176,3.8269625E-4,0.101454295,0.07182605,9.858873,0.0035823844,-0.006039912,-0.10764197,-0.005686229,-0.0011971008,0.11312603,0.110133275,0.08259996,9.805603
1500990000461,-8.1572623E-4,0.0015313176,3.8269625E-4,0.101454295,0.07182605,9.858873,0.0035823844,-0.006039912,-0.10764197,-0.005686229,-0.0011971008,0.11312603,0.110133275,0.08259996,9.805603
1500990000484,-8.1572623E-4,0.0015313176,3.8269625E-4,0.101454295,0.07182605,9.858873,0.0035823844,-0.006039912,-0.10764197,-0.005686229,-0.0011971008,0.11312603,0.110133275,0.08259996,9.805603
1500990000508,-8.1572623E-4,-5.9921126E-4,3.8269625E-4,0.10444705,0.08319851,9.846903,0.0035646297,-0.006036562,-0.10896284,-1.496376E-4,0.018255789,0.0796072,0.10998364,0.082300685,9.805603
1500990000532,-8.1572623E-4,-5.9921126E-4,3.8269625E-4,0.10444705,0.08319851,9.846903,0.0035646297,-0.006036562,-0.10896284,-1.496376E-4,0.018255789,0.0796072,0.10998364,0.082300685,9.805603
1500990000556,-8.1572623E-4,-5.9921126E-4,3.8269625E-4,0.10444705,0.08319851,9.846903,0.0035646297,-0.006036562,-0.10896284,-1.496376E-4,0.018255789,0.0796072,0.10998364,0.082300685,9.805603
1500990000581,-8.1572623E-4,-5.9921126E-4,3.8269625E-4,0.10444705,0.08319851,9.846903,0.0035646297,-0.006036562,-0.10896284,-1.496376E-4,0.018255789,0.0796072,0.10998364,0.082300685,9.805603
1500990000604,2.495382E-4,4.660532E-4,3.8269625E-4,0.08948329,0.06703765,9.855283,0.003579597,-0.0060343454,-0.11027137,0.007182605,0.0058358666,0.06584055,0.109834,0.0827496,9.805603
1500990000628,2.495382E-4,4.660532E-4,3.8269625E-4,0.08948329,0.06703765,9.855283,0.003579597,-0.0060343454,-0.11027137,0.007182605,0.0058358666,0.06584055,0.109834,0.0827496,9.805603
1500990000651,2.495382E-4,4.660532E-4,3.8269625E-4,0.08948329,0.06703765,9.855283,0.003579597,-0.0060343454,-0.11027137,0.007182605,0.0058358666,0.06584055,0.109834,0.0827496,9.805603
1500990000681,-0.0018809907,0.002596582,3.8269625E-4,0.13078327,0.054468088,9.846903,0.00356826,-0.006046665,-0.11122709,-0.0031423897,-0.027533319,0.05267244,0.10998364,0.08259996,9.805603
1500990000704,-0.0018809907,0.002596582,3.8269625E-4,0.13078327,0.054468088,9.846903,0.00356826,-0.006046665,-0.11122709,-0.0031423897,-0.027533319,0.05267244,0.10998364,0.08259996,9.805603
1500990000727,0.0023467776,1.4966965E-4,3.8269625E-4,0.1110311,0.07182605,9.85648,0.0035644164,-0.0060696164,-0.11248947,0.0163105,-0.015711948,0.075417355,0.11028291,0.0827496,9.805603
1500990000755,0.0023467776,1.4966965E-4,3.8269625E-4,0.1110311,0.07182605,9.85648,0.0035644164,-0.0060696164,-0.11248947,0.0163105,-0.015711948,0.075417355,0.11028291,0.0827496,9.805603
1500990000779,0.0023467776,1.4966965E-4,3.8269625E-4,0.1110311,0.07182605,9.85648,0.0035644164,-0.0060696164,-0.11248947,0.0163105,-0.015711948,0.075417355,0.11028291,0.0827496,9.805603
1500990000802,2.1624868E-4,0.0022801985,-6.825682E-4,0.11581951,0.06584055,9.830143,0.0035648048,-0.0060686963,-0.11268387,0.03007716,-0.018704701,0.09756372,0.11028291,0.0827496,9.805603
1500990000826,2.1624868E-4,0.0022801985,-6.825682E-4,0.11581951,0.06584055,9.830143,0.0035648048,-0.0060686963,-0.11268387,0.03007716,-0.018704701,0.09756372,0.11028291,0.0827496,9.805603
1500990000850,2.1624868E-4,0.0022801985,-6.825682E-4,0.11581951,0.06584055,9.830143,0.0035648048,-0.0060686963,-0.11268387,0.03007716,-0.018704701,0.09756372,0.11028291,0.0827496,9.805603
1500990000873,2.1624868E-4,-0.001980859,-0.0017478326,0.11522096,0.047285482,9.864261,0.0035589635,-0.006068049,-0.11332715,7.48188E-4,0.008230069,0.077811554,0.11028291,0.0827496,9.805603
1500990000896,2.1624868E-4,-0.001980859,-0.0017478326,0.11522096,0.047285482,9.864261,0.0035589635,-0.006068049,-0.11332715,7.48188E-4,0.008230069,0.077811554,0.11028291,0.0827496,9.805603
1500990000919,2.1624868E-4,-0.001980859,-0.0017478326,0.11522096,0.047285482,9.864261,0.0035589635,-0.006068049,-0.11332715,7.48188E-4,0.008230069,0.077811554,0.11028291,0.0827496,9.805603
1500990000943,-8.490158E-4,-0.001980859,-6.825682E-4,0.100855745,0.06823475,9.846304,0.003573089,-0.006066573,-0.1137098,0.0134673845,-0.026785132,0.045489833,0.110133275,0.08304887,9.805603
1500990000966,-8.490158E-4,-0.001980859,-6.825682E-4,0.100855745,0.06823475,9.846304,0.003573089,-0.006066573,-0.1137098,0.0134673845,-0.026785132,0.045489833,0.110133275,0.08304887,9.805603
1500990000990,-8.490158E-4,-0.001980859,-6.825682E-4,0.100855745,0.06823475,9.846304,0.003573089,-0.006066573,-0.1137098,0.0134673845,-0.026785132,0.045489833,0.110133275,0.08304887,9.805603
1500990001014,-8.490158E-4,-0.001980859,-6.825682E-4,0.100855745,0.06823475,9.846304,0.003573089,-0.006066573,-0.1137098,0.0134673845,-0.026785132,0.045489833,0.110133275,0.08304887,9.805603
1500990001040,2.1624868E-4,-9.1559475E-4,3.8269625E-4,0.11522096,0.08020575,9.840319,0.0035746451,-0.0060687996,-0.11390702,2.992752E-4,-0.034117375,0.02873042,0.110133275,0.08319851,9.805603
1500990001064,2.1624868E-4,-9.1559475E-4,3.8269625E-4,0.11522096,0.08020575,9.840319,0.0035746451,-0.0060687996,-0.11390702,2.992752E-4,-0.034117375,0.02873042,0.110133275,0.08319851,9.805603
1500990001089,2.1624868E-4,-9.1559475E-4,3.8269625E-4,0.11522096,0.08020575,9.840319,0.0035746451,-0.0060687996,-0.11390702,2.992752E-4,-0.034117375,0.02873042,0.110133275,0.08319851,9.805603
1500990001113,-0.0018642128,-6.492787E-4,-4.660532E-4,0.102052845,0.07182605,9.8498955,0.0035739038,-0.0060768416,-0.11376203,0.004189853,-0.022595279,0.027533319,0.11043255,0.08304887,9.805603
1500990001135,-0.0018642128,-6.492787E-4,-4.660532E-4,0.102052845,0.07182605,9.8498955,0.0035739038,-0.0060768416,-0.11376203,0.004189853,-0.022595279,0.027533319,0.11043255,0.08304887,9.805603
1500990001160,-0.0018642128,-6.492787E-4,-4.660532E-4,0.102052845,0.07182605,9.8498955,0.0035739038,-0.0060768416,-0.11376203,0.004189853,-0.022595279,0.027533319,0.11043255,0.08304887,9.805603
1500990001186,-7.9894834E-4,4.1598576E-4,-4.660532E-4,0.11043255,0.077213004,9.880422,0.0035839202,-0.006086476,-0.1136368,0.002244564,-0.015711948,0.019752163,0.11058219,0.08334815,9.805603
1500990001210,-7.9894834E-4,4.1598576E-4,-4.660532E-4,0.11043255,0.077213004,9.880422,0.0035839202,-0.006086476,-0.1136368,0.002244564,-0.015711948,0.019752163,0.11058219,0.08334815,9.805603
1500990001234,-7.9894834E-4,4.1598576E-4,-4.660532E-4,0.11043255,0.077213004,9.880422,0.0035839202,-0.006086476,-0.1136368,0.002244564,-0.015711948,0.019752163,0.11058219,0.08334815,9.805603
1500990001258,-0.0018642128,-0.0027798074,-0.0015313176,0.109834,0.074220255,9.853487,0.0036022533,-0.006084821,-0.11351486,-5.985504E-4,-0.009427169,0.047884032,0.11043255,0.08364742,9.805603
1500990001281,-0.0018642128,-0.0027798074,-0.0015313176,0.109834,0.074220255,9.853487,0.0036022533,-0.006084821,-0.11351486,-5.985504E-4,-0.009427169,0.047884032,0.11043255,0.08364742,9.805603
1500990001305,-7.9894834E-4,-0.0070408653,5.9921126E-4,0.117016606,0.0724246,9.919328,0.003599221,-0.0060923956,-0.113353826,0.006434417,-0.008828619,0.06584055,0.11058219,0.08364742,9.805603
1500990001328,-7.9894834E-4,-0.0070408653,5.9921126E-4,0.117016606,0.0724246,9.919328,0.003599221,-0.0060923956,-0.113353826,0.006434417,-0.008828619,0.06584055,0.11058219,0.08364742,9.805603
1500990001351,-7.9894834E-4,-0.0070408653,5.9921126E-4,0.117016606,0.0724246,9.919328,0.003599221,-0.0060923956,-0.113353826,0.006434417,-0.008828619,0.06584055,0.11058219,0.08364742,9.805603
1500990001375,-0.022104237,0.099485576,0.14334464,0.6287772,-19.651608,10.35986,0.003538671,-0.0061263144,-0.11322353,-0.0058358666,-19.734058,-0.5057751,0.11148002,0.08245032,9.805603
1500990001398,-0.022104237,0.099485576,0.14334464,0.6287772,-19.651608,10.35986,0.003538671,-0.0061263144,-0.11322353,-0.0058358666,-19.734058,-0.5057751,0.11148002,0.08245032,9.805603
1500990001420,-0.022104237,0.099485576,0.14334464,0.6287772,-19.651608,10.35986,0.003538671,-0.0061263144,-0.11322353,-0.0058358666,-19.734058,-0.5057751,0.11148002,0.08245032,9.805603
1500990001443,0.014114753,-0.012367187,-0.3946139,1.0884639,-2.4875755,9.431509,-0.029504653,-0.0030290978,-0.11233329,1.2339118,-2.261174,-0.1273416,0.12389994,-0.568174,9.789292
1500990001465,0.014114753,-0.012367187,-0.3946139,1.0884639,-2.4875755,9.431509,-0.029504653,-0.0030290978,-0.11233329,1.2339118,-2.261174,-0.1273416,0.12389994,-0.568174,9.789292
1500990001489,0.014114753,-0.012367187,-0.3946139,1.0884639,-2.4875755,9.431509,-0.029504653,-0.0030290978,-0.11233329,1.2339118,-2.261174,-0.1273416,0.12389994,-0.568174,9.789292
1500990001514,-0.0231695,-0.0688262,-0.0920788,0.50487727,4.8267107,10.14498,-0.01815511,6.8698265E-4,-0.12941997,1.2042835,6.051195,0.06778584,0.032621,-0.35479078,9.800066
1500990001536,-0.0231695,-0.0688262,-0.0920788,0.50487727,4.8267107,10.14498,-0.01815511,6.8698265E-4,-0.12941997,1.2042835,6.051195,0.06778584,0.032621,-0.35479078,9.800066
1500990001559,-0.0231695,-0.0688262,-0.0920788,0.50487727,4.8267107,10.14498,-0.01815511,6.8698265E-4,-0.12941997,1.2042835,6.051195,0.06778584,0.032621,-0.35479078,9.800066
1500990001581,0.01091896,-0.014497716,-0.32217592,0.44981065,5.461174,9.495554,0.084436625,-0.033142887,-0.1362016,0.06584055,4.0939355,0.28790274,0.41569328,1.7221792,9.645191
1500990001604,0.01091896,-0.014497716,-0.32217592,0.44981065,5.461174,9.495554,0.084436625,-0.033142887,-0.1362016,0.06584055,4.0939355,0.28790274,0.41569328,1.7221792,9.645191
1500990001626,0.01091896,-0.014497716,-0.32217592,0.44981065,5.461174,9.495554,0.084436625,-0.033142887,-0.1362016,0.06584055,4.0939355,0.28790274,0.41569328,1.7221792,9.645191
1500990001649,2.7989823E-4,-0.02724467,-0.22311032,0.14993688,5.981314,10.044424,0.114159614,-0.03099719,-0.1546499,-1.9220951,3.3241994,0.23523031,0.25004444,2.2902036,9.532065
1500990001671,2.7989823E-4,-0.02724467,-0.22311032,0.14993688,5.981314,10.044424,0.114159614,-0.03099719,-0.1546499,-1.9220951,3.3241994,0.23523031,0.25004444,2.2902036,9.532065
1500990001694,2.7989823E-4,-0.02724467,-0.22311032,0.14993688,5.981314,10.044424,0.114159614,-0.03099719,-0.1546499,-1.9220951,3.3241994,0.23523031,0.25004444,2.2902036,9.532065
1500990001717,-0.0018506306,-0.003808853,-0.026036395,-0.014065935,5.973533,9.937882,0.16826858,-0.034977153,-0.16979228,-0.104297414,2.5875335,0.6358102,0.10519524,3.318962,9.227253
1500990001739,-0.0018506306,-0.003808853,-0.026036395,-0.014065935,5.973533,9.937882,0.16826858,-0.034977153,-0.16979228,-0.104297414,2.5875335,0.6358102,0.10519524,3.318962,9.227253
1500990001762,-0.0018506306,-0.003808853,-0.026036395,-0.014065935,5.973533,9.937882,0.16826858,-0.034977153,-0.16979228,-0.104297414,2.5875335,0.6358102,0.10519524,3.318962,9.227253
1500990001785,-0.0018506306,4.5220475E-4,-0.0015353124,0.0966659,0.10354923,9.8894,0.14058909,-0.030366674,-0.1774223,-0.002244564,-2.715324,0.48317984,0.09053075,2.7901428,9.400833
1500990001808,-0.0018506306,4.5220475E-4,-0.0015353124,0.0966659,0.10354923,9.8894,0.14058909,-0.030366674,-0.1774223,-0.002244564,-2.715324,0.48317984,0.09053075,2.7901428,9.400833
1500990001831,-0.0018506306,4.5220475E-4,-0.0015353124,0.0966659,0.10354923,9.8894,0.14058909,-0.030366674,-0.1774223,-0.002244564,-2.715324,0.48317984,0.09053075,2.7901428,9.400833
1500990001854,-0.0018506306,4.5220475E-4,-0.0015353124,0.0966659,0.10354923,9.8894,0.14058909,-0.030366674,-0.1774223,-0.002244564,-2.715324,0.48317984,0.09053075,2.7901428,9.400833
1500990001876,-0.0018506306,4.5220475E-4,-0.0015353124,0.0966659,0.10354923,9.8894,0.14058909,-0.030366674,-0.1774223,-0.002244564,-2.715324,0.48317984,0.09053075,2.7901428,9.400833
1500990001899,-0.002915895,-0.0016783241,0.001660481,0.1074398,-5.985504E-4,9.866654,0.09555951,-0.023009617,-0.18276758,-0.004638766,-1.8840871,0.18076223,0.09891046,1.9158102,9.61706
1500990001922,-0.002915895,-0.0016783241,0.001660481,0.1074398,-5.985504E-4,9.866654,0.09555951,-0.023009617,-0.18276758,-0.004638766,-1.8840871,0.18076223,0.09891046,1.9158102,9.61706
1500990001944,-0.002915895,-0.0016783241,0.001660481,0.1074398,-5.985504E-4,9.866654,0.09555951,-0.023009617,-0.18276758,-0.004638766,-1.8840871,0.18076223,0.09891046,1.9158102,9.61706
1500990001967,2.7989823E-4,4.5220475E-4,5.952165E-4,0.09367314,-0.007182605,9.909751,0.06488543,-0.017949734,-0.18693604,-0.0019452889,-1.2811972,0.11133038,0.10699089,1.3129203,9.717616
1500990001989,2.7989823E-4,4.5220475E-4,5.952165E-4,0.09367314,-0.007182605,9.909751,0.06488543,-0.017949734,-0.18693604,-0.0019452889,-1.2811972,0.11133038,0.10699089,1.3129203,9.717616
1500990002011,2.7989823E-4,4.5220475E-4,5.952165E-4,0.09367314,-0.007182605,9.909751,0.06488543,-0.017949734,-0.18693604,-0.0019452889,-1.2811972,0.11133038,0.10699089,1.3129203,9.717616
1500990002035,2.7989823E-4,-6.130597E-4,5.952165E-4,0.13138182,0.027533319,9.867852,0.04409282,-0.0143864695,-0.19107826,0.038007952,-0.87119013,0.03755904,0.11133038,0.90171623,9.764452
1500990002059,2.7989823E-4,-6.130597E-4,5.952165E-4,0.13138182,0.027533319,9.867852,0.04409282,-0.0143864695,-0.19107826,0.038007952,-0.87119013,0.03755904,0.11133038,0.90171623,9.764452
1500990002081,0.0013451626,-6.130597E-4,5.952165E-4,0.13497312,0.094570965,9.8498955,0.0361232,-0.01305411,-0.19332398,0.03172317,-0.64823014,0.10878654,0.11402386,0.74399817,9.77762
1500990002104,0.0013451626,-6.130597E-4,5.952165E-4,0.13497312,0.094570965,9.8498955,0.0361232,-0.01305411,-0.19332398,0.03172317,-0.64823014,0.10878654,0.11402386,0.74399817,9.77762
1500990002127,0.0013451626,-6.130597E-4,5.952165E-4,0.13497312,0.094570965,9.8498955,0.0361232,-0.01305411,-0.19332398,0.03172317,-0.64823014,0.10878654,0.11402386,0.74399817,9.77762
1500990002149,2.8469192E-4,-0.001665541,-4.7137952E-4,0.102052845,0.08080431,9.880422,0.02430183,-0.011086581,-0.19860934,-0.013317747,-0.4688146,0.050128598,0.11836334,0.5101146,9.792584
1500990002172,2.8469192E-4,-0.001665541,-4.7137952E-4,0.102052845,0.08080431,9.880422,0.02430183,-0.011086581,-0.19860934,-0.013317747,-0.4688146,0.050128598,0.11836334,0.5101146,9.792584
1500990002197,2.8469192E-4,-0.001665541,-4.7137952E-4,0.102052845,0.08080431,9.880422,0.02430183,-0.011086581,-0.19860934,-0.013317747,-0.4688146,0.050128598,0.11836334,0.5101146,9.792584
1500990002220,0.0013499564,-0.001665541,-4.7137952E-4,0.14694414,0.047285482,9.849297,0.020313777,-0.010277355,-0.20150457,0.022146367,-0.39414546,0.10788871,0.117016606,0.43065703,9.796474
1500990002242,0.0013499564,-0.001665541,-4.7137952E-4,0.14694414,0.047285482,9.849297,0.020313777,-0.010277355,-0.20150457,0.022146367,-0.39414546,0.10788871,0.117016606,0.43065703,9.796474
1500990002265,-0.0019640813,6.3250074E-4,-0.0014314491,0.11342531,-0.017357962,9.834333,0.013821172,-0.009172991,-0.2077431,0.008230069,-0.35389295,0.042197805,0.11956045,0.3024176,9.801113
1500990002287,-0.0019640813,6.3250074E-4,-0.0014314491,0.11342531,-0.017357962,9.834333,0.013821172,-0.009172991,-0.2077431,0.008230069,-0.35389295,0.042197805,0.11956045,0.3024176,9.801113
1500990002310,-0.0019640813,6.3250074E-4,-0.0014314491,0.11342531,-0.017357962,9.834333,0.013821172,-0.009172991,-0.2077431,0.008230069,-0.35389295,0.042197805,0.11956045,0.3024176,9.801113
1500990002332,-8.9881686E-4,0.0016977652,-3.6618466E-4,0.10803835,-0.037708677,9.888203,0.011168741,-0.008710828,-0.21110524,-0.011971008,-0.2805705,0.076614454,0.12060791,0.25004444,9.80261
1500990002354,-8.9881686E-4,0.0016977652,-3.6618466E-4,0.10803835,-0.037708677,9.888203,0.011168741,-0.008710828,-0.21110524,-0.011971008,-0.2805705,0.076614454,0.12060791,0.25004444,9.80261
1500990002379,-0.0019640813,0.0016977652,0.0028296087,0.14155717,0.02873042,9.837326,0.0076601934,-0.008060243,-0.2180015,0.023044191,-0.13078327,0.05955577,0.12150574,0.1810615,9.804107
1500990002401,-0.0019640813,0.0016977652,0.0028296087,0.14155717,0.02873042,9.837326,0.0076601934,-0.008060243,-0.2180015,0.023044191,-0.13078327,0.05955577,0.12150574,0.1810615,9.804107
1500990002428,-0.0019640813,0.0016977652,0.0028296087,0.14155717,0.02873042,9.837326,0.0076601934,-0.008060243,-0.2180015,0.023044191,-0.13078327,0.05955577,0.12150574,0.1810615,9.804107
1500990002451,-8.9881686E-4,0.0016977652,-3.6618466E-4,0.13497312,0.0700304,9.872042,0.006086625,-0.007845812,-0.2215587,-0.008828619,-0.06060323,-2.992752E-4,0.123451024,0.1503858,9.804705
1500990002474,-8.9881686E-4,0.0016977652,-3.6618466E-4,0.13497312,0.0700304,9.872042,0.006086625,-0.007845812,-0.2215587,-0.008828619,-0.06060323,-2.992752E-4,0.123451024,0.1503858,9.804705
1500990002498,1.6644757E-4,-4.3276369E-4,6.9907977E-4,0.12000936,0.06344634,9.851691,0.0040584793,-0.0075761713,-0.22833358,0.012120646,-0.059855044,0.064493805,0.12644377,0.11133038,9.805154
1500990002520,1.6644757E-4,-4.3276369E-4,6.9907977E-4,0.12000936,0.06344634,9.851691,0.0040584793,-0.0075761713,-0.22833358,0.012120646,-0.059855044,0.064493805,0.12644377,0.11133038,9.805154
1500990002543,1.6644757E-4,-4.3276369E-4,6.9907977E-4,0.12000936,0.06344634,9.851691,0.0040584793,-0.0075761713,-0.22833358,0.012120646,-0.059855044,0.064493805,0.12644377,0.11133038,9.805154
1500990002565,-4.660532E-4,-6.1598915E-4,-7.8243675E-4,0.16071078,0.06344634,9.877429,0.0035970863,-0.0074509922,-0.23176433,0.017657237,-0.079008654,0.10803835,0.12569559,0.10235212,9.805304
1500990002588,-4.660532E-4,-6.1598915E-4,-7.8243675E-4,0.16071078,0.06344634,9.877429,0.0035970863,-0.0074509922,-0.23176433,0.017657237,-0.079008654,0.10803835,0.12569559,0.10235212,9.805304
1500990002610,-4.660532E-4,-6.1598915E-4,-7.8243675E-4,0.16071078,0.06344634,9.877429,0.0035970863,-0.0074509922,-0.23176433,0.017657237,-0.079008654,0.10803835,0.12569559,0.10235212,9.805304
1500990002637,-4.660532E-4,4.4927528E-4,-7.8243675E-4,0.13676877,0.04309563,9.807399,0.002358296,-0.00722179,-0.23861586,-0.011222821,-0.06254852,0.04563947,0.12644377,0.07870938,9.805453
1500990002659,-4.660532E-4,4.4927528E-4,-7.8243675E-4,0.13676877,0.04309563,9.807399,0.002358296,-0.00722179,-0.23861586,-0.011222821,-0.06254852,0.04563947,0.12644377,0.07870938,9.805453
1500990002681,-4.660532E-4,4.4927528E-4,-7.8243675E-4,0.13676877,0.04309563,9.807399,0.002358296,-0.00722179,-0.23861586,-0.011222821,-0.06254852,0.04563947,0.12644377,0.07870938,9.805453
1500990002715,0.0016644757,-6.1598915E-4,2.828277E-4,0.087089084,-0.008379706,9.888802,0.0015368816,-0.006920824,-0.2451879,-0.023343466,-0.06419453,0.055066638,0.12419921,0.06239888,9.805603
1500990002738,0.0016644757,-6.1598915E-4,2.828277E-4,0.087089084,-0.008379706,9.888802,0.0015368816,-0.006920824,-0.2451879,-0.023343466,-0.06419453,0.055066638,0.12419921,0.06239888,9.805603
1500990002760,5.9921126E-4,4.4927528E-4,-7.8243675E-4,0.14095862,-0.0011971008,9.862465,0.0013682768,-0.006781428,-0.24832065,0.0134673845,-0.06434417,0.049081136,0.12210429,0.058957215,9.805603
1500990002783,5.9921126E-4,4.4927528E-4,-7.8243675E-4,0.14095862,-0.0011971008,9.862465,0.0013682768,-0.006781428,-0.24832065,0.0134673845,-0.06434417,0.049081136,0.12210429,0.058957215,9.805603
1500990002805,5.9921126E-4,4.4927528E-4,0.0013480921,0.14215572,0.005985504,9.921721,9.0003107E-4,-0.006727796,-0.2544156,-0.0077811554,-0.023044191,0.08080431,0.12300211,0.05057751,9.805603
1500990002829,5.9921126E-4,4.4927528E-4,0.0013480921,0.14215572,0.005985504,9.921721,9.0003107E-4,-0.006727796,-0.2544156,-0.0077811554,-0.023044191,0.08080431,0.12300211,0.05057751,9.805603
1500990002854,5.9921126E-4,4.4927528E-4,0.0013480921,0.14215572,0.005985504,9.921721,9.0003107E-4,-0.006727796,-0.2544156,-0.0077811554,-0.023044191,0.08080431,0.12300211,0.05057751,9.805603
1500990002879,5.9921126E-4,-0.0016812535,2.828277E-4,0.10564415,0.046686932,9.86845,4.3621007E-4,-0.0066868095,-0.25771812,-0.024241293,0.014814123,0.03875614,0.12449849,0.042048167,9.805753
1500990002904,1.6644757E-4,6.3250074E-4,-0.0016644757,0.12958616,0.007182605,9.898378,4.3621007E-4,-0.0066868095,-0.25771812,-0.031423897,-0.0163105,0.08723872,0.12449849,0.042048167,9.805753
1500990002929,1.6644757E-4,6.3250074E-4,-0.0016644757,0.12958616,0.007182605,9.898378,4.3621007E-4,-0.0066868095,-0.25771812,-0.031423897,-0.0163105,0.08723872,0.12449849,0.042048167,9.805753
1500990002954,-8.9881686E-4,-0.0025632926,0.0015313176,0.10444705,-0.0047884034,9.859472,2.3448281E-4,-0.0064742416,-0.26395628,-0.014963761,-0.021098902,0.10339958,0.12120646,0.037858315,9.805753
1500990002978,-8.9881686E-4,-0.0025632926,0.0015313176,0.10444705,-0.0047884034,9.859472,2.3448281E-4,-0.0064742416,-0.26395628,-0.014963761,-0.021098902,0.10339958,0.12120646,0.037858315,9.805753
1500990003002,-8.9881686E-4,-0.0025632926,0.0015313176,0.10444705,-0.0047884034,9.859472,2.3448281E-4,-0.0064742416,-0.26395628,-0.014963761,-0.021098902,0.10339958,0.12120646,0.037858315,9.805753
1500990003024,1.6644757E-4,6.3250074E-4,-0.0016644757,0.13676877,0.036511578,9.882815,1.4590193E-4,-0.006338004,-0.26962116,0.006584055,0.020051438,0.07706337,0.11881226,0.0362123,9.805753
1500990003046,1.6644757E-4,6.3250074E-4,-0.0016644757,0.13676877,0.036511578,9.882815,1.4590193E-4,-0.006338004,-0.26962116,0.006584055,0.020051438,0.07706337,0.11881226,0.0362123,9.805753
1500990003069,1.6644757E-4,6.3250074E-4,-0.0016644757,0.13676877,0.036511578,9.882815,1.4590193E-4,-0.006338004,-0.26962116,0.006584055,0.020051438,0.07706337,0.11881226,0.0362123,9.805753
1500990003094,0.0012317119,-4.3276369E-4,-0.0016644757,0.09247604,0.065242,9.840918,-1.6074441E-4,-0.0063208556,-0.27225175,-0.010773907,0.03875614,0.061501056,0.12000936,0.03067571,9.805753
1500990003119,0.0012317119,-4.3276369E-4,-0.0016644757,0.09247604,0.065242,9.840918,-1.6074441E-4,-0.0063208556,-0.27225175,-0.010773907,0.03875614,0.061501056,0.12000936,0.03067571,9.805753
1500990003142,0.0012317119,-4.3276369E-4,-0.0016644757,0.09247604,0.065242,9.840918,-1.6074441E-4,-0.0063208556,-0.27225175,-0.010773907,0.03875614,0.061501056,0.12000936,0.03067571,9.805753
1500990003166,-8.9881686E-4,0.0016977652,-5.9921126E-4,0.097862996,0.0796072,9.8576765,-3.272444E-4,-0.0062405504,-0.27729455,-0.013018472,0.027383681,0.03935469,0.119261175,0.027682956,9.805753
1500990003188,-8.9881686E-4,0.0016977652,-5.9921126E-4,0.097862996,0.0796072,9.8576765,-3.272444E-4,-0.0062405504,-0.27729455,-0.013018472,0.027383681,0.03935469,0.119261175,0.027682956,9.805753
1500990003214,-8.9881686E-4,0.0016977652,-5.9921126E-4,0.097862996,0.0796072,9.8576765,-3.272444E-4,-0.0062405504,-0.27729455,-0.013018472,0.027383681,0.03935469,0.119261175,0.027682956,9.805753
1500990003240,-8.8230526E-4,-0.001298291,-4.4954158E-4,0.12419921,0.0700304,9.876231,-2.3903605E-4,-0.0062481193,-0.28218326,0.023942016,0.06748656,0.056712653,0.11881226,0.03007716,9.805753
1500990003262,-8.8230526E-4,-0.001298291,-4.4954158E-4,0.12419921,0.0700304,9.876231,-2.3903605E-4,-0.0062481193,-0.28218326,0.023942016,0.06748656,0.056712653,0.11881226,0.03007716,9.805753
1500990003285,1.8295916E-4,8.322378E-4,6.1572285E-4,0.12120646,0.08200141,9.925313,-1.8572807E-4,-0.006191084,-0.28688225,0.0038905777,0.033967737,0.062099606,0.11731588,0.03127426,9.805753
1500990003308,1.8295916E-4,8.322378E-4,6.1572285E-4,0.12120646,0.08200141,9.925313,-1.8572807E-4,-0.006191084,-0.28688225,0.0038905777,0.033967737,0.062099606,0.11731588,0.03127426,9.805753
1500990003331,1.8295916E-4,8.322378E-4,6.1572285E-4,0.12120646,0.08200141,9.925313,-1.8572807E-4,-0.006191084,-0.28688225,0.0038905777,0.033967737,0.062099606,0.11731588,0.03127426,9.805753
1500990003354,-0.0019475697,0.0018975022,-0.0025800704,0.13257892,0.06823475,9.797822,-3.1000003E-4,-0.0062294584,-0.28926042,0.0037409402,0.01062427,0.057311203,0.11866262,0.029478608,9.805753
1500990003376,-0.0019475697,0.0018975022,-0.0025800704,0.13257892,0.06823475,9.797822,-3.1000003E-4,-0.0062294584,-0.28926042,0.0037409402,0.01062427,0.057311203,0.11866262,0.029478608,9.805753
1500990003399,-0.0019475697,0.0018975022,-0.0025800704,0.13257892,0.06823475,9.797822,-3.1000003E-4,-0.0062294584,-0.28926042,0.0037409402,0.01062427,0.057311203,0.11866262,0.029478608,9.805753
1500990003421,-8.8230526E-4,0.0018975022,-0.0025800704,0.09127894,0.023942016,9.896583,-3.991695E-4,-0.0062141633,-0.29377404,0.0043394906,0.004040215,0.08604162,0.11866262,0.028281508,9.805753
1500990003443,-8.8230526E-4,0.0018975022,-0.0025800704,0.09127894,0.023942016,9.896583,-3.991695E-4,-0.0062141633,-0.29377404,0.0043394906,0.004040215,0.08604162,0.11866262,0.028281508,9.805753
1500990003466,-8.8230526E-4,0.0018975022,-0.0025800704,0.09127894,0.023942016,9.896583,-3.991695E-4,-0.0062141633,-0.29377404,0.0043394906,0.004040215,0.08604162,0.11866262,0.028281508,9.805753
1500990003488,1.8295916E-4,-0.001298291,-4.4954158E-4,0.12060791,0.002992752,9.860669,-1.7436035E-4,-0.006241844,-0.29571494,0.009277532,-0.022146367,0.09262568,0.11791443,0.032920275,9.805753
1500990003510,1.8295916E-4,-0.001298291,-4.4954158E-4,0.12060791,0.002992752,9.860669,-1.7436035E-4,-0.006241844,-0.29571494,0.009277532,-0.022146367,0.09262568,0.11791443,0.032920275,9.805753
1500990003533,4.825648E-4,-0.0016977652,3.3289514E-5,0.12599486,-0.019153614,9.924116,-2.4640188E-4,-0.0063533084,-0.2996041,-0.0026934769,-0.0362123,0.08544307,0.12030864,0.032621,9.805753
1500990003555,4.825648E-4,-0.0016977652,3.3289514E-5,0.12599486,-0.019153614,9.924116,-2.4640188E-4,-0.0063533084,-0.2996041,-0.0026934769,-0.0362123,0.08544307,0.12030864,0.032621,9.805753
1500990003578,4.825648E-4,-0.0016977652,3.3289514E-5,0.12599486,-0.019153614,9.924116,-2.4640188E-4,-0.0063533084,-0.2996041,-0.0026934769,-0.0362123,0.08544307,0.12030864,0.032621,9.805753
1500990003600,4.825648E-4,4.3276369E-4,3.3289514E-5,0.098461546,0.009576807,9.879823,-4.825825E-4,-0.006295697,-0.3013703,-0.02558803,0.010175358,0.09262568,0.120458275,0.02813187,9.805753
1500990003622,4.825648E-4,4.3276369E-4,3.3289514E-5,0.098461546,0.009576807,9.879823,-4.825825E-4,-0.006295697,-0.3013703,-0.02558803,0.010175358,0.09262568,0.120458275,0.02813187,9.805753
1500990003645,4.825648E-4,4.3276369E-4,3.3289514E-5,0.098461546,0.009576807,9.879823,-4.825825E-4,-0.006295697,-0.3013703,-0.02558803,0.010175358,0.09262568,0.120458275,0.02813187,9.805753
1500990003667,-5.8269966E-4,-6.3250074E-4,3.3289514E-5,0.10923545,0.059855044,9.887604,-4.4326857E-4,-0.0063093742,-0.30500755,0.011522096,0.035913024,0.019003976,0.120458275,0.02932897,9.805753
1500990003690,-5.8269966E-4,-6.3250074E-4,3.3289514E-5,0.10923545,0.059855044,9.887604,-4.4326857E-4,-0.0063093742,-0.30500755,0.011522096,0.035913024,0.019003976,0.120458275,0.02932897,9.805753
1500990003712,-5.8269966E-4,0.001498028,0.0032290828,0.12719196,0.06703765,9.880422,-5.2723754E-4,-0.0062544486,-0.30674306,-0.002244564,0.02558803,0.07407062,0.119859725,0.027682956,9.805753
1500990003734,-5.8269966E-4,0.001498028,0.0032290828,0.12719196,0.06703765,9.880422,-5.2723754E-4,-0.0062544486,-0.30674306,-0.002244564,0.02558803,0.07407062,0.119859725,0.027682956,9.805753
1500990003757,-5.8269966E-4,0.001498028,0.0032290828,0.12719196,0.06703765,9.880422,-5.2723754E-4,-0.0062544486,-0.30674306,-0.002244564,0.02558803,0.07407062,0.119859725,0.027682956,9.805753
1500990003779,4.825648E-4,-6.3250074E-4,0.001098554,0.11402386,0.023343466,9.8816185,-6.101262E-4,-0.0062305173,-0.30991367,-0.0058358666,-0.0043394906,0.062099606,0.119859725,0.026485857,9.805753
1500990003801,4.825648E-4,-6.3250074E-4,0.001098554,0.11402386,0.023343466,9.8816185,-6.101262E-4,-0.0062305173,-0.30991367,-0.0058358666,-0.0043394906,0.062099606,0.119859725,0.026485857,9.805753
1500990003824,4.825648E-4,4.3276369E-4,-0.0010319749,0.12000936,-0.006584055,9.887604,-4.6092365E-4,-0.00623665,-0.3113083,0.01062427,-0.033668462,0.1273416,0.1189619,0.029478608,9.805753
1500990003846,4.825648E-4,4.3276369E-4,-0.0010319749,0.12000936,-0.006584055,9.887604,-4.6092365E-4,-0.00623665,-0.3113083,0.01062427,-0.033668462,0.1273416,0.1189619,0.029478608,9.805753
1500990003868,4.825648E-4,4.3276369E-4,-0.0010319749,0.12000936,-0.006584055,9.887604,-4.6092365E-4,-0.00623665,-0.3113083,0.01062427,-0.033668462,0.1273416,0.1189619,0.029478608,9.805753
1500990003890,-7.158577E-4,-0.0019640813,-0.0013315806,0.12779051,0.011372458,9.870845,-5.8225915E-4,-0.006215086,-0.31280056,0.004938041,-0.02124854,0.09861118,0.119261175,0.027234044,9.805753
1500990003913,-7.158577E-4,-0.0019640813,-0.0013315806,0.12779051,0.011372458,9.870845,-5.8225915E-4,-0.006215086,-0.31280056,0.004938041,-0.02124854,0.09861118,0.119261175,0.027234044,9.805753
1500990003942,-7.158577E-4,-0.0019640813,-0.0013315806,0.12779051,0.011372458,9.870845,-5.8225915E-4,-0.006215086,-0.31280056,0.004938041,-0.02124854,0.09861118,0.119261175,0.027234044,9.805753
1500990003965,-7.158577E-4,1.6644757E-4,-2.663161E-4,0.11162966,0.0047884034,9.8816185,-4.7381595E-4,-0.0062907487,-0.3160219,-0.022595279,4.4891282E-4,0.007631518,0.119859725,0.03007716,9.805753
1500990003991,-7.158577E-4,1.6644757E-4,-2.663161E-4,0.11162966,0.0047884034,9.8816185,-4.7381595E-4,-0.0062907487,-0.3160219,-0.022595279,4.4891282E-4,0.007631518,0.119859725,0.03007716,9.805753
1500990004018,-7.158577E-4,1.6644757E-4,-2.663161E-4,0.11162966,0.0047884034,9.8816185,-4.7381595E-4,-0.0062907487,-0.3160219,-0.022595279,4.4891282E-4,0.007631518,0.119859725,0.03007716,9.805753
1500990004040,3.4940674E-4,1.6644757E-4,-2.663161E-4,0.1074398,0.020949265,9.901371,-4.935935E-4,-0.006304738,-0.3190818,0.0058358666,-0.017657237,0.047135845,0.120159,0.030226797,9.805753
1500990004063,3.4940674E-4,1.6644757E-4,-2.663161E-4,0.1074398,0.020949265,9.901371,-4.935935E-4,-0.006304738,-0.3190818,0.0058358666,-0.017657237,0.047135845,0.120159,0.030226797,9.805753
1500990004085,3.4940674E-4,1.6644757E-4,-2.663161E-4,0.1074398,0.020949265,9.901371,-4.935935E-4,-0.006304738,-0.3190818,0.0058358666,-0.017657237,0.047135845,0.120159,0.030226797,9.805753
1500990004108,0.0024799355,0.0012317119,-0.002396845,0.117016606,0.034715924,9.886407,-6.0768425E-4,-0.006251733,-0.32035884,0.0043394906,0.012120646,0.047135845,0.119859725,0.027982233,9.805753
1500990004132,0.0014146712,0.0012317119,7.9894834E-4,0.117615156,0.0053869537,9.870246,-4.8154686E-4,-0.0062813954,-0.32137755,0.004040215,-0.01316811,0.045938745,0.11956045,0.030526072,9.805753
1500990004154,0.0014146712,0.0012317119,7.9894834E-4,0.117615156,0.0053869537,9.870246,-4.8154686E-4,-0.0062813954,-0.32137755,0.004040215,-0.01316811,0.045938745,0.11956045,0.030526072,9.805753
1500990004178,0.0014146712,0.0012317119,7.9894834E-4,0.117615156,0.0053869537,9.870246,-4.8154686E-4,-0.0062813954,-0.32137755,0.004040215,-0.01316811,0.045938745,0.11956045,0.030526072,9.805753
1500990004201,-9.1559475E-4,2.1624868E-4,2.495382E-4,0.13497312,-0.009576807,9.916933,-4.795175E-4,-0.0063335504,-0.32349488,1.496376E-4,-0.029478608,0.07706337,0.120458275,0.03127426,9.805753
1500990004223,-9.1559475E-4,2.1624868E-4,2.495382E-4,0.13497312,-0.009576807,9.916933,-4.795175E-4,-0.0063335504,-0.32349488,1.496376E-4,-0.029478608,0.07706337,0.120458275,0.03127426,9.805753
1500990004250,-9.1559475E-4,2.1624868E-4,0.0013148027,0.14993688,0.017956512,9.867253,-4.795175E-4,-0.0063335504,-0.32349488,0.01810615,-0.025288755,0.06688801,0.120458275,0.03127426,9.805753
1500990004276,1.4966965E-4,-8.490158E-4,0.0013148027,0.13018471,0.006584055,9.92651,-4.8776995E-4,-0.0064533846,-0.3253872,0.0026934769,-0.00808043,0.10100538,0.12270284,0.032022446,9.805753
1500990004298,1.4966965E-4,-8.490158E-4,0.0013148027,0.13018471,0.006584055,9.92651,-4.8776995E-4,-0.0064533846,-0.3253872,0.0026934769,-0.00808043,0.10100538,0.12270284,0.032022446,9.805753
1500990004321,-0.001980859,-0.0019142802,2.495382E-4,0.1110311,0.014963761,9.857078,-5.561197E-4,-0.0064708153,-0.32634076,-0.011222821,-4.4891282E-4,0.07047931,0.123451024,0.030974984,9.805753
1500990004344,-0.001980859,-0.0019142802,2.495382E-4,0.1110311,0.014963761,9.857078,-5.561197E-4,-0.0064708153,-0.32634076,-0.011222821,-4.4891282E-4,0.07047931,0.123451024,0.030974984,9.805753
1500990004367,1.4966965E-4,0.0012815131,2.495382E-4,0.14036007,-0.0035913025,9.927707,-5.561197E-4,-0.0064708153,-0.32634076,0.01690905,-0.034566287,0.12195465,0.123451024,0.030974984,9.805753
1500990004394,-9.1559475E-4,-8.490158E-4,2.495382E-4,0.13617022,0.016759412,9.863064,-5.9163384E-4,-0.0064878035,-0.32822064,0.0134673845,-0.006135142,0.08783727,0.12389994,0.03067571,9.805753
1500990004418,-9.1559475E-4,-8.490158E-4,2.495382E-4,0.13617022,0.016759412,9.863064,-5.9163384E-4,-0.0064878035,-0.32822064,0.0134673845,-0.006135142,0.08783727,0.12389994,0.03067571,9.805753
1500990004442,0.0022801985,2.1624868E-4,0.0013148027,0.13617022,0.026934769,9.875633,-7.1819127E-4,-0.006504952,-0.32918957,0.015861586,0.011522096,0.08364742,0.12509704,0.028580783,9.805753
1500990004465,0.0022801985,2.1624868E-4,0.0013148027,0.13617022,0.026934769,9.875633,-7.1819127E-4,-0.006504952,-0.32918957,0.015861586,0.011522096,0.08364742,0.12509704,0.028580783,9.805753
1500990004490,-5.9921126E-4,-7.8243675E-4,-5.006743E-5,0.13377602,0.049081136,9.931298,-7.709386E-4,-0.0064720716,-0.33089617,-0.002244564,0.017806875,0.08424597,0.124648124,0.027682956,9.805753
1500990004514,-5.9921126E-4,-7.8243675E-4,-5.006743E-5,0.13377602,0.049081136,9.931298,-7.709386E-4,-0.0064720716,-0.33089617,-0.002244564,0.017806875,0.08424597,0.124648124,0.027682956,9.805753
1500990004537,-5.9921126E-4,-7.8243675E-4,-5.006743E-5,0.13377602,0.049081136,9.931298,-7.709386E-4,-0.0064720716,-0.33089617,-0.002244564,0.017806875,0.08424597,0.124648124,0.027682956,9.805753
1500990004560,-5.9921126E-4,-7.8243675E-4,0.001015197,0.12719196,0.019752163,9.851092,-6.387206E-4,-0.0064936485,-0.33175507,-0.008379706,-0.0034416649,0.05192425,0.12419921,0.030376434,9.805753
1500990004583,-5.9921126E-4,-7.8243675E-4,0.001015197,0.12719196,0.019752163,9.851092,-6.387206E-4,-0.0064936485,-0.33175507,-0.008379706,-0.0034416649,0.05192425,0.12419921,0.030376434,9.805753
1500990004607,-5.9921126E-4,-7.8243675E-4,0.001015197,0.12719196,0.019752163,9.851092,-6.387206E-4,-0.0064936485,-0.33175507,-0.008379706,-0.0034416649,0.05192425,0.12419921,0.030376434,9.805753
1500990004630,4.660532E-4,2.828277E-4,0.001015197,0.13257892,0.0047884034,9.854684,-6.5033697E-4,-0.006471797,-0.33333287,-0.0062847794,-0.024241293,0.06688801,0.12389994,0.030226797,9.805753
1500990004653,4.660532E-4,2.828277E-4,0.001015197,0.13257892,0.0047884034,9.854684,-6.5033697E-4,-0.006471797,-0.33333287,-0.0062847794,-0.024241293,0.06688801,0.12389994,0.030226797,9.805753
1500990004678,-0.0016644757,2.828277E-4,-5.006743E-5,0.13078327,0.046686932,9.894188,-7.097209E-4,-0.006499946,-0.33404067,0.01436521,0.004189853,0.112377845,0.12479776,0.02932897,9.805753
1500990004702,-0.0016644757,2.828277E-4,-5.006743E-5,0.13078327,0.046686932,9.894188,-7.097209E-4,-0.006499946,-0.33404067,0.01436521,0.004189853,0.112377845,0.12479776,0.02932897,9.805753
1500990004727,-5.9921126E-4,2.828277E-4,-0.0011153319,0.117016606,0.051475335,9.930699,-6.4986944E-4,-0.0066375732,-0.33540168,-0.012868834,0.008529344,0.11058219,0.12689269,0.031573534,9.805753
1500990004751,-5.9921126E-4,2.828277E-4,-0.0011153319,0.117016606,0.051475335,9.930699,-6.4986944E-4,-0.0066375732,-0.33540168,-0.012868834,0.008529344,0.11058219,0.12689269,0.031573534,9.805753
1500990004775,-5.9921126E-4,2.828277E-4,-0.0011153319,0.117016606,0.051475335,9.930699,-6.4986944E-4,-0.0066375732,-0.33540168,-0.012868834,0.008529344,0.11058219,0.12689269,0.031573534,9.805753
1500990004799,-5.9921126E-4,-7.8243675E-4,0.001015197,0.12060791,0.039504327,9.85648,-6.995257E-4,-0.0065883836,-0.33615342,-0.009876082,0.009726444,0.11776479,0.12629414,0.030376434,9.805753
1500990004822,-5.9921126E-4,-7.8243675E-4,0.001015197,0.12060791,0.039504327,9.85648,-6.995257E-4,-0.0065883836,-0.33615342,-0.009876082,0.009726444,0.11776479,0.12629414,0.030376434,9.805753
1500990004845,-4.993427E-4,-9.1559475E-4,-9.986854E-5,0.10444705,0.037708677,9.870246,-6.996617E-4,-0.00645045,-0.33762738,-0.006135142,-0.0038905777,0.13392566,0.1249474,0.031423897,9.805753
1500990004869,5.659217E-4,-9.1559475E-4,9.653959E-4,0.11881226,0.032920275,9.908553,-6.996617E-4,-0.00645045,-0.33762738,-0.027533319,0.012120646,0.07885902,0.12360066,0.029777884,9.805753
1500990004893,5.659217E-4,-9.1559475E-4,9.653959E-4,0.11881226,0.032920275,9.908553,-6.996617E-4,-0.00645045,-0.33762738,-0.027533319,0.012120646,0.07885902,0.12360066,0.029777884,9.805753
1500990004919,0.0016311861,-0.001980859,-9.986854E-5,0.13078327,0.035314474,9.827749,-6.406931E-4,-0.00637085,-0.33835992,-0.005985504,0.0019452889,0.09561843,0.12180501,0.030376434,9.805753
1500990004943,0.0016311861,-0.001980859,-9.986854E-5,0.13078327,0.035314474,9.827749,-6.406931E-4,-0.00637085,-0.33835992,-0.005985504,0.0019452889,0.09561843,0.12180501,0.030376434,9.805753
1500990004967,0.0016311861,-0.001980859,-9.986854E-5,0.13078327,0.035314474,9.827749,-6.406931E-4,-0.00637085,-0.33835992,-0.005985504,0.0019452889,0.09561843,0.12180501,0.030376434,9.805753
1500990004991,5.659217E-4,1.4966965E-4,-9.986854E-5,0.13018471,0.04129998,9.870845,-7.250123E-4,-0.006342373,-0.33959547,0.0023942017,-0.0017956513,0.09561843,0.12180501,0.02873042,9.805753
1500990005016,5.659217E-4,1.4966965E-4,-9.986854E-5,0.13018471,0.04129998,9.870845,-7.250123E-4,-0.006342373,-0.33959547,0.0023942017,-0.0017956513,0.09561843,0.12180501,0.02873042,9.805753
1500990005040,5.659217E-4,1.4966965E-4,-9.986854E-5,0.13018471,0.04129998,9.870845,-7.250123E-4,-0.006342373,-0.33959547,0.0023942017,-0.0017956513,0.09561843,0.12180501,0.02873042,9.805753
1500990005063,-0.0015646071,-0.001980859,9.653959E-4,0.12000936,0.048482586,9.895984,-6.0725864E-4,-0.0063650543,-0.34084526,-0.014514848,0.006434417,0.10639234,0.1213561,0.03127426,9.805753
1500990005086,-0.0015646071,-0.001980859,9.653959E-4,0.12000936,0.048482586,9.895984,-6.0725864E-4,-0.0063650543,-0.34084526,-0.014514848,0.006434417,0.10639234,0.1213561,0.03127426,9.805753
1500990005111,-0.0015646071,-0.001980859,9.653959E-4,0.12000936,0.048482586,9.895984,-6.0725864E-4,-0.0063650543,-0.34084526,-0.014514848,0.006434417,0.10639234,0.1213561,0.03127426,9.805753
1500990005135,-0.006108759,-0.011451593,-0.001098554,0.109834,-0.022744916,10.089315,-5.483702E-4,-0.006314601,-0.3414922,-0.01316811,-0.029179333,0.1997662,0.12000936,0.032172084,9.805753
1500990005157,-0.006108759,-0.011451593,-0.001098554,0.109834,-0.022744916,10.089315,-5.483702E-4,-0.006314601,-0.3414922,-0.01316811,-0.029179333,0.1997662,0.12000936,0.032172084,9.805753
1500990005181,2.828277E-4,-0.0018642128,-3.3289514E-5,0.14634559,0.025737667,9.88102,-4.8037805E-4,-0.0062759593,-0.3429725,0.016759412,0.020051438,0.03875614,0.11881226,0.03321955,9.805753
1500990005204,2.828277E-4,-0.0018642128,-3.3289514E-5,0.14634559,0.025737667,9.88102,-4.8037805E-4,-0.0062759593,-0.3429725,0.016759412,0.020051438,0.03875614,0.11881226,0.03321955,9.805753
1500990005227,-0.0018477011,2.663161E-4,0.0020972393,0.12240356,0.06584055,9.952847,-6.385641E-4,-0.0062285475,-0.34363857,0.004040215,0.019602526,0.08903438,0.1189619,0.03007716,9.805753
1500990005250,-0.0018477011,2.663161E-4,0.0020972393,0.12240356,0.06584055,9.952847,-6.385641E-4,-0.0062285475,-0.34363857,0.004040215,0.019602526,0.08903438,0.1189619,0.03007716,9.805753
1500990005272,2.828277E-4,-0.0029294773,0.0010319749,0.12719196,-0.0023942017,9.91813,-4.6420377E-4,-0.006287733,-0.34434435,0.018555064,-0.046986207,0.09501988,0.11881226,0.0338181,9.805753
1500990005295,2.828277E-4,-0.0029294773,0.0010319749,0.12719196,-0.0023942017,9.91813,-4.6420377E-4,-0.006287733,-0.34434435,0.018555064,-0.046986207,0.09501988,0.11881226,0.0338181,9.805753
1500990005325,2.828277E-4,-0.0029294773,0.0010319749,0.12719196,-0.0023942017,9.91813,-4.6420377E-4,-0.006287733,-0.34434435,0.018555064,-0.046986207,0.09501988,0.11881226,0.0338181,9.805753
